"view_history","rt","trial_type","trial_index","time_elapsed","internal_node_id","responses","Id","word","sound","key_press","TrueMeaning","WordType","answer","correct","TrialType","TargetMeaning","LegalTrial","trialNum"
"[{""page_index"":0,""viewing_time"":6696}]","6696","instructions","0","6698","0.0-0.0","","","","","","","","","","","","",""
"[{""page_index"":0,""viewing_time"":1319},{""page_index"":1,""viewing_time"":1032},{""page_index"":2,""viewing_time"":1368},{""page_index"":3,""viewing_time"":4303},{""page_index"":4,""viewing_time"":13720}]","21742","instructions","1","28440","0.0-1.0","","","","","","","","","","","","",""
"","8059","survey-multi-choice","2","36505","0.0-2.0","{""Q0"":""Yes"",""Q1"":""Yes"",""Q2"":""Yes"",""Q3"":""Yes"",""Q4"":""Yes""}","","","","","","","","","","","",""
"[{""page_index"":0,""viewing_time"":1094},{""page_index"":1,""viewing_time"":3864}]","4958","instructions","3","41463","0.0-3.0-0.0","","","","","","","","","","","","",""
"","4935","same-different-html-trial","4","52416","0.0-3.0-1.0","","0","""sushi""","""prc_sushi.wav""","32","","","","","","","",""
"[{""page_index"":0,""viewing_time"":4162}]","4162","instructions","5","57580","0.0-3.0-2.0","","","","","","","","","","","","",""
"","5512","same-different-html","6","65095","0.0-3.0-3.0","","0","""sushi""","""prc_sushi.wav""","191","","","same","1","","","0",""
"[{""page_index"":0,""viewing_time"":2667}]","2667","instructions","7","68763","0.0-3.0-4.0","","","","","","","","","","","","",""
"","3895","same-different-html","8","74663","0.0-3.0-5.0","","0","""cat""","""prc_sushi.wav""","90","","","different","1","","","0",""
"[{""page_index"":0,""viewing_time"":6051},{""page_index"":1,""viewing_time"":2120}]","8171","instructions","9","83834","0.0-3.0-6.0","","","","","","","","","","","","",""
"","2637","same-different-html-trial","10","92479","0.0-3.0-7.0","","0","""thank you""","""prc_arigato.wav""","32","","","","","","","",""
"[{""page_index"":0,""viewing_time"":6325}]","6326","instructions","11","99805","0.0-3.0-8.0","","","","","","","","","","","","",""
"","4182","same-different-html","12","105990","0.0-3.0-9.0","","0","""thank you""","""prc_arigato.wav""","191","","","same","1","","","0",""
"","2803","same-different-html","13","111802","0.0-3.0-10.0","","0","""cat""","""prc_arigato.wav""","90","","","different","1","","","0",""
"[{""page_index"":0,""viewing_time"":1626},{""page_index"":1,""viewing_time"":10360}]","11986","instructions","14","124789","0.0-3.0-11.0","","","","","","","","","","","","",""
"","15469","same-different-html-trial","15","146265","0.0-3.0-12.0","","2132-6","""deficient""","""fubifubi.wav""","32","deficient","RNAdj","","","","","","1"
"","4480","same-different-html-trial","16","157752","0.0-3.0-13.0","","2132-6","""chubby""","""bukubuku.wav""","32","chubby","RI","","","","","","2"
"","6109","same-different-html-trial","17","170868","0.0-3.0-14.0","","2132-6","""free""","""hima.wav""","32","free","NAdj","","","","","","3"
"","9503","same-different-html-trial","18","187379","0.0-3.0-15.0","","2132-6","""worn out""","""boro.wav""","32","worn out","SRI","","","","","","4"
"","2961","same-different-html-trial","19","197348","0.0-3.0-16.0","","2132-6","""decisive""","""pisha.wav""","32","decisive","NRI","","","","","","5"
"","1639","same-different-html-trial","20","205995","0.0-3.0-17.0","","2132-6","""energetic""","""kibi.wav""","32","energetic","SRI","","","","","","6"
"","1695","same-different-html-trial","21","214698","0.0-3.0-18.0","","2132-6","""sturdy""","""gashi.wav""","32","sturdy","NRI","","","","","","7"
"","2192","same-different-html-trial","22","223898","0.0-3.0-19.0","","2132-6","""hesitant""","""mojimoji.wav""","32","hesitant","RI","","","","","","8"
"","2113","same-different-html-trial","23","233023","0.0-3.0-20.0","","2132-6","""dejected""","""gakugaku.wav""","32","dejected","RNRI","","","","","","9"
"","2249","same-different-html-trial","24","242279","0.0-3.0-21.0","","2132-6","""shivering""","""buru.wav""","32","shivering","SRI","","","","","","10"
"","2112","same-different-html-trial","25","251398","0.0-3.0-22.0","","2132-6","""comfortable""","""raku.wav""","32","comfortable","NAdj","","","","","","11"
"","1474","same-different-html-trial","26","259878","0.0-3.0-23.0","","2132-6","""smooth""","""nopperi.wav""","32","smooth","NRI","","","","","","12"
"","1952","same-different-html-trial","27","268837","0.0-3.0-24.0","","2132-6","""rare""","""mare.wav""","32","rare","NAdj","","","","","","13"
"","4328","same-different-html-trial","28","280173","0.0-3.0-25.0","","2132-6","""harsh""","""kokukoku.wav""","32","harsh","RNAdj","","","","","","14"
"","7229","same-different-html-trial","29","294409","0.0-3.0-26.0","","2132-6","""to change ocmpletely""","""garagara.wav""","32","to change ocmpletely","RNRI","","","","","","15"
"","3136","same-different-html-trial","30","304553","0.0-3.0-27.0","","2132-6","""beneficial""","""tokutoku.wav""","32","beneficial","RNAdj","","","","","","16"
"","1895","same-different-html-trial","31","313456","0.0-3.0-28.0","","2132-6","""sullen""","""musu.wav""","32","sullen","NRI","","","","","","17"
"","1721","same-different-html-trial","32","322185","0.0-3.0-29.0","","2132-6","""messy""","""gocha.wav""","32","messy","SRI","","","","","","18"
"","3353","same-different-html-trial","33","332545","0.0-3.0-30.0","","2132-6","""wobbly""","""yurayura.wav""","32","wobbly","RI","","","","","","19"
"","1290","same-different-html-trial","34","340855","0.0-3.0-31.0","","2132-6","""disadvantaged""","""furi.wav""","32","disadvantaged","NAdj","","","","","","20"
"","6076","same-different-html-trial","35","353947","0.0-3.0-32.0","","2132-6","""fast asleep""","""gussurigussuri.wav""","32","fast asleep","RNRI","","","","","","21"
"","2128","same-different-html-trial","36","363083","0.0-3.0-33.0","","2132-6","""nonchalantly""","""kerokero.wav""","32","nonchalantly","RNRI","","","","","","22"
"","2184","same-different-html-trial","37","372274","0.0-3.0-34.0","","2132-6","""sloppy""","""zatsuzatsu.wav""","32","sloppy","RNAdj","","","","","","23"
"","10319","same-different-html-trial","38","389602","0.0-3.0-35.0","","2132-6","""chatty""","""berabera.wav""","32","chatty","RI","","","","","","24"
"","2722","same-different-html-trial","39","399330","0.0-3.0-36.0","","2132-6","""nonchalantly""","""kerokero.wav""","32","nonchalantly","RNRI","","","","","","25"
"","1928","same-different-html-trial","40","408265","0.0-3.0-37.0","","2132-6","""sloppy""","""zatsuzatsu.wav""","32","sloppy","RNAdj","","","","","","26"
"","2482","same-different-html-trial","41","417759","0.0-3.0-38.0","","2132-6","""chubby""","""bukubuku.wav""","32","chubby","RI","","","","","","27"
"","2454","same-different-html-trial","42","427221","0.0-3.0-39.0","","2132-6","""worn out""","""boro.wav""","32","worn out","SRI","","","","","","28"
"","1896","same-different-html-trial","43","436124","0.0-3.0-40.0","","2132-6","""deficient""","""fubifubi.wav""","32","deficient","RNAdj","","","","","","29"
"","2521","same-different-html-trial","44","445652","0.0-3.0-41.0","","2132-6","""beneficial""","""tokutoku.wav""","32","beneficial","RNAdj","","","","","","30"
"","2472","same-different-html-trial","45","455131","0.0-3.0-42.0","","2132-6","""comfortable""","""raku.wav""","32","comfortable","NAdj","","","","","","31"
"","2856","same-different-html-trial","46","464996","0.0-3.0-43.0","","2132-6","""chatty""","""berabera.wav""","32","chatty","RI","","","","","","32"
"","2912","same-different-html-trial","47","474919","0.0-3.0-44.0","","2132-6","""decisive""","""pisha.wav""","32","decisive","NRI","","","","","","33"
"","3432","same-different-html-trial","48","485359","0.0-3.0-45.0","","2132-6","""fast asleep""","""gussurigussuri.wav""","32","fast asleep","RNRI","","","","","","34"
"","2423","same-different-html-trial","49","494790","0.0-3.0-46.0","","2132-6","""messy""","""gocha.wav""","32","messy","SRI","","","","","","35"
"","2305","same-different-html-trial","50","504102","0.0-3.0-47.0","","2132-6","""free""","""hima.wav""","32","free","NAdj","","","","","","36"
"","2569","same-different-html-trial","51","513678","0.0-3.0-48.0","","2132-6","""shivering""","""buru.wav""","32","shivering","SRI","","","","","","37"
"","2730","same-different-html-trial","52","523414","0.0-3.0-49.0","","2132-6","""to change ocmpletely""","""garagara.wav""","32","to change ocmpletely","RNRI","","","","","","38"
"","6469","same-different-html-trial","53","536894","0.0-3.0-50.0","","2132-6","""harsh""","""kokukoku.wav""","32","harsh","RNAdj","","","","","","39"
"","2355","same-different-html-trial","54","546257","0.0-3.0-51.0","","2132-6","""rare""","""mare.wav""","32","rare","NAdj","","","","","","40"
"","2480","same-different-html-trial","55","555768","0.0-3.0-52.0","","2132-6","""energetic""","""kibi.wav""","32","energetic","SRI","","","","","","41"
"","2590","same-different-html-trial","56","565369","0.0-3.0-53.0","","2132-6","""sturdy""","""gashi.wav""","32","sturdy","NRI","","","","","","42"
"","2408","same-different-html-trial","57","574784","0.0-3.0-54.0","","2132-6","""smooth""","""nopperi.wav""","32","smooth","NRI","","","","","","43"
"","3290","same-different-html-trial","58","585080","0.0-3.0-55.0","","2132-6","""disadvantaged""","""furi.wav""","32","disadvantaged","NAdj","","","","","","44"
"","1911","same-different-html-trial","59","594004","0.0-3.0-56.0","","2132-6","""sullen""","""musu.wav""","32","sullen","NRI","","","","","","45"
"","633","same-different-html-trial","60","601645","0.0-3.0-57.0","","2132-6","""wobbly""","""yurayura.wav""","32","wobbly","RI","","","","","","46"
"","2719","same-different-html-trial","61","611403","0.0-3.0-58.0","","2132-6","""hesitant""","""mojimoji.wav""","32","hesitant","RI","","","","","","47"
"","3537","same-different-html-trial","62","621947","0.0-3.0-59.0","","2132-6","""dejected""","""gakugaku.wav""","32","dejected","RNRI","","","","","","48"
"[{""page_index"":0,""viewing_time"":22961}]","22962","instructions","63","645910","0.0-3.0-60.0","","","","","","","","","","","","",""
"","2876","same-different-html","64","650790","0.0-3.0-61.0","","2132-6","""nonchalantly""","""kerokero.wav""","191","nonchalantly","RNRI","same","1","T","nonchalantly","Y","1"
"","1733","same-different-html","65","655526","0.0-3.0-62.0","","2132-6","""wobbly""","""furi.wav""","90","disadvantaged","NAdj","different","1","D","wobbly","Y","2"
"","1461","same-different-html","66","659990","0.0-3.0-63.0","","2132-6","""worn out""","""boro.wav""","191","worn out","SRI","same","1","T","worn out","Y","3"
"","1883","same-different-html","67","664877","0.0-3.0-64.0","","2132-6","""shivering""","""gashi.wav""","90","sturdy","NRI","different","1","D","shivering","Y","4"
"","2548","same-different-html","68","670429","0.0-3.0-65.0","","2132-6","""beneficial""","""tokutoku.wav""","191","beneficial","RNAdj","same","1","T","beneficial","Y","5"
"","1348","same-different-html","69","674781","0.0-3.0-66.0","","2132-6","""rare""","""mare.wav""","191","rare","NAdj","same","1","T","rare","Y","6"
"","2223","same-different-html","70","680013","0.0-3.0-67.0","","2132-6","""chubby""","""nopperi.wav""","90","smooth","NRI","different","1","D","chubby","Y","7"
"","1508","same-different-html","71","684525","0.0-3.0-68.0","","2132-6","""to change ocmpletely""","""garagara.wav""","191","to change ocmpletely","RNRI","same","1","T","to change ocmpletely","Y","8"
"","2435","same-different-html","72","689965","0.0-3.0-69.0","","2132-6","""deficient""","""fubifubi.wav""","191","deficient","RNAdj","same","1","T","deficient","Y","9"
"","1756","same-different-html","73","694724","0.0-3.0-70.0","","2132-6","""decisive""","""pisha.wav""","191","decisive","NRI","same","1","T","decisive","Y","10"
"","2002","same-different-html","74","699732","0.0-3.0-71.0","","2132-6","""free""","""hima.wav""","191","free","NAdj","same","1","T","free","Y","11"
"","1699","same-different-html","75","704436","0.0-3.0-72.0","","2132-6","""hesitant""","""mojimoji.wav""","191","hesitant","RI","same","1","T","hesitant","Y","12"
"","1347","same-different-html","76","708788","0.0-3.0-73.0","","2132-6","""messy""","""gocha.wav""","191","messy","SRI","same","1","T","messy","Y","13"
"","3689","same-different-html","77","715488","0.0-3.0-74.0","","2132-6","""sloppy""","""zatsuzatsu.wav""","191","sloppy","RNAdj","same","1","T","sloppy","Y","14"
"","1810","same-different-html","78","720304","0.0-3.0-75.0","","2132-6","""worn out""","""kibi.wav""","90","energetic","SRI","different","1","D","worn out","Y","15"
"","2472","same-different-html","79","725783","0.0-3.0-76.0","","2132-6","""fast asleep""","""gussurigussuri.wav""","191","fast asleep","RNRI","same","1","T","fast asleep","Y","16"
"","2053","same-different-html","80","730840","0.0-3.0-77.0","","2132-6","""disadvantaged""","""furi.wav""","90","disadvantaged","NAdj","same","0","T","disadvantaged","Y","17"
"","2194","same-different-html","81","736039","0.0-3.0-78.0","","2132-6","""smooth""","""pisha.wav""","90","decisive","NRI","different","1","D","smooth","Y","18"
"","1537","same-different-html","82","740591","0.0-3.0-79.0","","2132-6","""dejected""","""boro.wav""","90","worn out","SRI","different","1","D","dejected","Y","19"
"","1540","same-different-html","83","745135","0.0-3.0-80.0","","2132-6","""chatty""","""mare.wav""","90","rare","NAdj","different","1","D","chatty","Y","20"
"","2491","same-different-html","84","750631","0.0-3.0-81.0","","2132-6","""sullen""","""garagara.wav""","191","to change ocmpletely","RNRI","different","0","D","sullen","Y","21"
"","3564","same-different-html","85","757198","0.0-3.0-82.0","","2132-6","""disadvantaged""","""buru.wav""","90","shivering","SRI","different","1","D","disadvantaged","Y","22"
"","3674","same-different-html","86","763878","0.0-3.0-83.0","","2132-6","""to change ocmpletely""","""gussurigussuri.wav""","191","fast asleep","RNRI","different","0","D","to change ocmpletely","Y","23"
"","4013","same-different-html","87","770895","0.0-3.0-84.0","","2132-6","""free""","""mojimoji.wav""","191","hesitant","RI","different","0","D","free","Y","24"
"","1844","same-different-html","88","775743","0.0-3.0-85.0","","2132-6","""energetic""","""fubifubi.wav""","90","deficient","RNAdj","different","1","D","energetic","Y","25"
"","3028","same-different-html","89","781774","0.0-3.0-86.0","","2132-6","""fast asleep""","""yurayura.wav""","90","wobbly","RI","different","1","D","fast asleep","Y","26"
"","2452","same-different-html","90","787230","0.0-3.0-87.0","","2132-6","""sturdy""","""gashi.wav""","191","sturdy","NRI","same","1","T","sturdy","Y","27"
"","2556","same-different-html","91","792789","0.0-3.0-88.0","","2132-6","""nonchalantly""","""tokutoku.wav""","90","beneficial","RNAdj","different","1","D","nonchalantly","Y","28"
"","2779","same-different-html","92","798573","0.0-3.0-89.0","","2132-6","""harsh""","""raku.wav""","90","comfortable","NAdj","different","1","D","harsh","Y","29"
"","2436","same-different-html","93","804013","0.0-3.0-90.0","","2132-6","""deficient""","""kokukoku.wav""","90","harsh","RNAdj","different","1","D","deficient","Y","30"
"","2626","same-different-html","94","809644","0.0-3.0-91.0","","2132-6","""comfortable""","""raku.wav""","191","comfortable","NAdj","same","1","T","comfortable","Y","31"
"","1757","same-different-html","95","814406","0.0-3.0-92.0","","2132-6","""chubby""","""bukubuku.wav""","191","chubby","RI","same","1","T","chubby","Y","32"
"","3547","same-different-html","96","820957","0.0-3.0-93.0","","2132-6","""wobbly""","""yurayura.wav""","191","wobbly","RI","same","1","T","wobbly","Y","33"
"","1779","same-different-html","97","825742","0.0-3.0-94.0","","2132-6","""harsh""","""kokukoku.wav""","191","harsh","RNAdj","same","1","T","harsh","Y","34"
"","2135","same-different-html","98","830881","0.0-3.0-95.0","","2132-6","""sturdy""","""gocha.wav""","90","messy","SRI","different","1","D","sturdy","Y","35"
"","2099","same-different-html","99","835985","0.0-3.0-96.0","","2132-6","""hesitant""","""bukubuku.wav""","90","chubby","RI","different","1","D","hesitant","Y","36"
"","2521","same-different-html","100","841511","0.0-3.0-97.0","","2132-6","""decisive""","""zatsuzatsu.wav""","191","sloppy","RNAdj","different","0","D","decisive","Y","37"
"","1364","same-different-html","101","845880","0.0-3.0-98.0","","2132-6","""energetic""","""kibi.wav""","191","energetic","SRI","same","1","T","energetic","Y","38"
"","2195","same-different-html","102","851080","0.0-3.0-99.0","","2132-6","""dejected""","""gakugaku.wav""","191","dejected","RNRI","same","1","T","dejected","Y","39"
"","1458","same-different-html","103","855543","0.0-3.0-100.0","","2132-6","""messy""","""hima.wav""","90","free","NAdj","different","1","D","messy","Y","40"
"","2409","same-different-html","104","860967","0.0-3.0-101.0","","2132-6","""comfortable""","""gakugaku.wav""","90","dejected","RNRI","different","1","D","comfortable","Y","41"
"","2404","same-different-html","105","866376","0.0-3.0-102.0","","2132-6","""rare""","""kerokero.wav""","90","nonchalantly","RNRI","different","1","D","rare","Y","42"
"","2571","same-different-html","106","871951","0.0-3.0-103.0","","2132-6","""smooth""","""nopperi.wav""","191","smooth","NRI","same","1","T","smooth","Y","43"
"","2355","same-different-html","107","877311","0.0-3.0-104.0","","2132-6","""beneficial""","""berabera.wav""","90","chatty","RI","different","1","D","beneficial","Y","44"
"","2699","same-different-html","108","883014","0.0-3.0-105.0","","2132-6","""chatty""","""berabera.wav""","90","chatty","RI","same","0","T","chatty","Y","45"
"","2213","same-different-html","109","888231","0.0-3.0-106.0","","2132-6","""shivering""","""buru.wav""","191","shivering","SRI","same","1","T","shivering","Y","46"
"","2028","same-different-html","110","893267","0.0-3.0-107.0","","2132-6","""sullen""","""musu.wav""","191","sullen","NRI","same","1","T","sullen","Y","47"
"","1689","same-different-html","111","897963","0.0-3.0-108.0","","2132-6","""sloppy""","""musu.wav""","90","sullen","NRI","different","1","D","sloppy","Y","48"
"[{""page_index"":0,""viewing_time"":6634}]","6634","instructions","112","905602","0.0-3.0-109.0","","","","","","","","","","","","",""
