"view_history","rt","trial_type","trial_index","time_elapsed","internal_node_id","responses","Id","word","sound","key_press","TrueMeaning","WordType","answer","correct","TrialType","TargetMeaning","LegalTrial","trialNum"
"[{""page_index"":0,""viewing_time"":22824}]","22827","instructions","0","22833","0.0-0.0","","","","","","","","","","","","",""
"[{""page_index"":0,""viewing_time"":981},{""page_index"":1,""viewing_time"":4264},{""page_index"":2,""viewing_time"":2913},{""page_index"":3,""viewing_time"":13392},{""page_index"":4,""viewing_time"":18775}]","40326","instructions","1","63162","0.0-1.0","","","","","","","","","","","","",""
"","104268","survey-multi-choice","2","167448","0.0-2.0","{""Q0"":""Yes"",""Q1"":""Yes"",""Q2"":""Yes"",""Q3"":""Yes"",""Q4"":""Yes""}","","","","","","","","","","","",""
"[{""page_index"":0,""viewing_time"":1593},{""page_index"":1,""viewing_time"":6728}]","8322","instructions","3","175771","0.0-3.0-0.0","","","","","","","","","","","","",""
"","2204","same-different-html-trial","4","184006","0.0-3.0-1.0","","0","""sushi""","""prc_sushi.wav""","32","","","","","","","",""
"[{""page_index"":0,""viewing_time"":5113}]","5115","instructions","5","190123","0.0-3.0-2.0","","","","","","","","","","","","",""
"","39712","same-different-html","6","231962","0.0-3.0-3.0","","0","""sushi""","""prc_sushi.wav""","191","","","same","1","","","0",""
"[{""page_index"":0,""viewing_time"":3286}]","3288","instructions","7","236252","0.0-3.0-4.0","","","","","","","","","","","","",""
"","3891","same-different-html","8","242154","0.0-3.0-5.0","","0","""cat""","""prc_sushi.wav""","90","","","different","1","","","0",""
"[{""page_index"":0,""viewing_time"":2207},{""page_index"":1,""viewing_time"":6199}]","8407","instructions","9","251562","0.0-3.0-6.0","","","","","","","","","","","","",""
"","2477","same-different-html-trial","10","260060","0.0-3.0-7.0","","0","""thank you""","""prc_arigato.wav""","32","","","","","","","",""
"[{""page_index"":0,""viewing_time"":1484}]","1485","instructions","11","262546","0.0-3.0-8.0","","","","","","","","","","","","",""
"","5122","same-different-html","12","269677","0.0-3.0-9.0","","0","""thank you""","""prc_arigato.wav""","191","","","same","1","","","0",""
"","3347","same-different-html","13","276036","0.0-3.0-10.0","","0","""cat""","""prc_arigato.wav""","90","","","different","1","","","0",""
"[{""page_index"":0,""viewing_time"":1273},{""page_index"":1,""viewing_time"":15092}]","16365","instructions","14","293403","0.0-3.0-11.0","","","","","","","","","","","","",""
"","1109","same-different-html-trial","15","300533","0.0-3.0-12.0","","8443-1","""sullen""","""musu.wav""","32","sullen","NRI","","","","","","1"
"","612","same-different-html-trial","16","308165","0.0-3.0-13.0","","8443-1","""happy""","""ukiuki.wav""","32","happy","RI","","","","","","2"
"","521","same-different-html-trial","17","315706","0.0-3.0-14.0","","8443-1","""comfortable""","""raku.wav""","32","comfortable","NAdj","","","","","","3"
"","1479","same-different-html-trial","18","324208","0.0-3.0-15.0","","8443-1","""careful""","""jikkuri.wav""","32","careful","NRI","","","","","","4"
"","338","same-different-html-trial","19","331565","0.0-3.0-16.0","","8443-1","""hesitant""","""moji.wav""","32","hesitant","SRI","","","","","","5"
"","396","same-different-html-trial","20","338986","0.0-3.0-17.0","","8443-1","""fragile""","""yawa.wav""","32","fragile","NAdj","","","","","","6"
"","285","same-different-html-trial","21","346299","0.0-3.0-18.0","","8443-1","""whispering""","""hisohiso.wav""","32","whispering","RI","","","","","","7"
"","99","same-different-html-trial","22","354325","0.0-3.0-19.0","","8443-1","""crowded""","""bisshiribisshiri.wav""","32","crowded","RNRI","","","","","","8"
"","532","same-different-html-trial","23","362928","0.0-3.0-20.0","","8443-1","""disadvantaged""","""furifuri.wav""","32","disadvantaged","RNAdj","","","","","","9"
"","717","same-different-html-trial","24","371399","0.0-3.0-21.0","","8443-1","""sloppy""","""zatsu.wav""","32","sloppy","NAdj","","","","","","10"
"","433","same-different-html-trial","25","379653","0.0-3.0-22.0","","8443-1","""tasteless""","""yaboyabo.wav""","32","tasteless","RNAdj","","","","","","11"
"","763","same-different-html-trial","26","387441","0.0-3.0-23.0","","8443-1","""offended""","""kachinkachin.wav""","32","offended","RNRI","","","","","","12"
"","544","same-different-html-trial","27","395009","0.0-3.0-24.0","","8443-1","""pure""","""mukumuku.wav""","32","pure","RNAdj","","","","","","13"
"","712","same-different-html-trial","28","402740","0.0-3.0-25.0","","8443-1","""plump""","""potchari.wav""","32","plump","NRI","","","","","","14"
"","38393","same-different-html-trial","29","450601","0.0-3.0-26.0","","8443-1","""suspenseful""","""hara.wav""","32","suspenseful","SRI","","","","","","15"
"","1193","same-different-html-trial","30","460612","0.0-3.0-27.0","","8443-1","""worn out""","""boroboro.wav""","32","worn out","RI","","","","","","16"
"","11448","same-different-html-trial","31","479660","0.0-3.0-28.0","","8443-1","""energetic""","""kibi.wav""","32","energetic","SRI","","","","","","17"
"","754","same-different-html-trial","32","487437","0.0-3.0-29.0","","8443-1","""decisive""","""pisha.wav""","32","decisive","NRI","","","","","","18"
"","584","same-different-html-trial","33","495036","0.0-3.0-30.0","","8443-1","""glossy""","""tsuyatsuya.wav""","32","glossy","RI","","","","","","19"
"","454","same-different-html-trial","34","502506","0.0-3.0-31.0","","8443-1","""steaming""","""hoka.wav""","32","steaming","SRI","","","","","","20"
"","413","same-different-html-trial","35","509936","0.0-3.0-32.0","","8443-1","""perfect""","""batchiribatchiri.wav""","32","perfect","RNRI","","","","","","21"
"","465","same-different-html-trial","36","517421","0.0-3.0-33.0","","8443-1","""deficient""","""fubifubi.wav""","32","deficient","RNAdj","","","","","","22"
"","513","same-different-html-trial","37","524951","0.0-3.0-34.0","","8443-1","""smooth""","""nopperinopperi.wav""","32","smooth","RNRI","","","","","","23"
"","577","same-different-html-trial","38","533623","0.0-3.0-35.0","","8443-1","""harsh""","""koku.wav""","32","harsh","NAdj","","","","","","24"
"","571","same-different-html-trial","39","541220","0.0-3.0-36.0","","8443-1","""deficient""","""fubifubi.wav""","32","deficient","RNAdj","","","","","","25"
"","719","same-different-html-trial","40","548956","0.0-3.0-37.0","","8443-1","""hesitant""","""moji.wav""","32","hesitant","SRI","","","","","","26"
"","379","same-different-html-trial","41","556357","0.0-3.0-38.0","","8443-1","""decisive""","""pisha.wav""","32","decisive","NRI","","","","","","27"
"","398","same-different-html-trial","42","563779","0.0-3.0-39.0","","8443-1","""whispering""","""hisohiso.wav""","32","whispering","RI","","","","","","28"
"","357","same-different-html-trial","43","571156","0.0-3.0-40.0","","8443-1","""worn out""","""boroboro.wav""","32","worn out","RI","","","","","","29"
"","645","same-different-html-trial","44","578825","0.0-3.0-41.0","","8443-1","""comfortable""","""raku.wav""","32","comfortable","NAdj","","","","","","30"
"","529","same-different-html-trial","45","586381","0.0-3.0-42.0","","8443-1","""harsh""","""koku.wav""","32","harsh","NAdj","","","","","","31"
"","467","same-different-html-trial","46","593867","0.0-3.0-43.0","","8443-1","""sloppy""","""zatsu.wav""","32","sloppy","NAdj","","","","","","32"
"","1649","same-different-html-trial","47","602535","0.0-3.0-44.0","","8443-1","""fragile""","""yawa.wav""","32","fragile","NAdj","","","","","","33"
"","151","same-different-html-trial","48","609707","0.0-3.0-45.0","","8443-1","""glossy""","""tsuyatsuya.wav""","32","glossy","RI","","","","","","34"
"","914","same-different-html-trial","49","617655","0.0-3.0-46.0","","8443-1","""offended""","""kachinkachin.wav""","32","offended","RNRI","","","","","","35"
"","4021","same-different-html-trial","50","631238","0.0-3.0-47.0","","8443-1","""careful""","""jikkuri.wav""","32","careful","NRI","","","","","","36"
"","785","same-different-html-trial","51","640047","0.0-3.0-48.0","","8443-1","""smooth""","""nopperinopperi.wav""","32","smooth","RNRI","","","","","","37"
"","430","same-different-html-trial","52","647495","0.0-3.0-49.0","","8443-1","""crowded""","""bisshiribisshiri.wav""","32","crowded","RNRI","","","","","","38"
"","800","same-different-html-trial","53","657343","0.0-3.0-50.0","","8443-1","""suspenseful""","""hara.wav""","32","suspenseful","SRI","","","","","","39"
"","433","same-different-html-trial","54","665934","0.0-3.0-51.0","","8443-1","""steaming""","""hoka.wav""","32","steaming","SRI","","","","","","40"
"","377","same-different-html-trial","55","675287","0.0-3.0-52.0","","8443-1","""disadvantaged""","""furifuri.wav""","32","disadvantaged","RNAdj","","","","","","41"
"","1446","same-different-html-trial","56","687773","0.0-3.0-53.0","","8443-1","""sullen""","""musu.wav""","32","sullen","NRI","","","","","","42"
"","477","same-different-html-trial","57","696811","0.0-3.0-54.0","","8443-1","""plump""","""potchari.wav""","32","plump","NRI","","","","","","43"
"","2857","same-different-html-trial","58","711069","0.0-3.0-55.0","","8443-1","""happy""","""ukiuki.wav""","32","happy","RI","","","","","","44"
"","482","same-different-html-trial","59","720793","0.0-3.0-56.0","","8443-1","""energetic""","""kibi.wav""","32","energetic","SRI","","","","","","45"
"","4587","same-different-html-trial","60","732882","0.0-3.0-57.0","","8443-1","""pure""","""mukumuku.wav""","32","pure","RNAdj","","","","","","46"
"","333","same-different-html-trial","61","741571","0.0-3.0-58.0","","8443-1","""tasteless""","""yaboyabo.wav""","32","tasteless","RNAdj","","","","","","47"
"","566","same-different-html-trial","62","752743","0.0-3.0-59.0","","8443-1","""perfect""","""batchiribatchiri.wav""","32","perfect","RNRI","","","","","","48"
"[{""page_index"":0,""viewing_time"":8165}]","8166","instructions","63","762375","0.0-3.0-60.0","","","","","","","","","","","","",""
"","10317","same-different-html","64","774709","0.0-3.0-61.0","","8443-1","""careful""","""jikkuri.wav""","90","careful","NRI","same","0","T","careful","Y","1"
"","3127","same-different-html","65","783373","0.0-3.0-62.0","","8443-1","""plump""","""potchari.wav""","90","plump","NRI","same","0","T","plump","Y","2"
"","3393","same-different-html","66","791640","0.0-3.0-63.0","","8443-1","""sloppy""","""mukumuku.wav""","90","pure","RNAdj","different","1","D","sloppy","Y","3"
"","16488","same-different-html","67","812703","0.0-3.0-64.0","","8443-1","""disadvantaged""","""bisshiribisshiri.wav""","90","crowded","RNRI","different","1","D","disadvantaged","Y","4"
"","6585","same-different-html","68","823834","0.0-3.0-65.0","","8443-1","""suspenseful""","""koku.wav""","90","harsh","NAdj","different","1","D","suspenseful","Y","5"
"","5679","same-different-html","69","832925","0.0-3.0-66.0","","8443-1","""careful""","""hara.wav""","90","suspenseful","SRI","different","1","D","careful","Y","6"
"","5194","same-different-html","70","842454","0.0-3.0-67.0","","8443-1","""sloppy""","""zatsu.wav""","191","sloppy","NAdj","same","1","T","sloppy","Y","7"
"","3077","same-different-html","71","850296","0.0-3.0-68.0","","8443-1","""happy""","""ukiuki.wav""","90","happy","RI","same","0","T","happy","Y","8"
"","3454","same-different-html","72","857664","0.0-3.0-69.0","","8443-1","""deficient""","""jikkuri.wav""","90","careful","NRI","different","1","D","deficient","Y","9"
"","5371","same-different-html","73","866046","0.0-3.0-70.0","","8443-1","""offended""","""yaboyabo.wav""","90","tasteless","RNAdj","different","1","D","offended","Y","10"
"","4791","same-different-html","74","875996","0.0-3.0-71.0","","8443-1","""tasteless""","""yaboyabo.wav""","90","tasteless","RNAdj","same","0","T","tasteless","Y","11"
"","3042","same-different-html","75","883251","0.0-3.0-72.0","","8443-1","""suspenseful""","""hara.wav""","90","suspenseful","SRI","same","0","T","suspenseful","Y","12"
"","8174","same-different-html","76","896389","0.0-3.0-73.0","","8443-1","""sullen""","""kibi.wav""","90","energetic","SRI","different","1","D","sullen","Y","13"
"","5938","same-different-html","77","905338","0.0-3.0-74.0","","8443-1","""perfect""","""zatsu.wav""","90","sloppy","NAdj","different","1","D","perfect","Y","14"
"","5411","same-different-html","78","916619","0.0-3.0-75.0","","8443-1","""plump""","""tsuyatsuya.wav""","90","glossy","RI","different","1","D","plump","Y","15"
"","2904","same-different-html","79","922539","0.0-3.0-76.0","","8443-1","""disadvantaged""","""furifuri.wav""","191","disadvantaged","RNAdj","same","1","T","disadvantaged","Y","16"
"","7348","same-different-html","80","935559","0.0-3.0-77.0","","8443-1","""pure""","""musu.wav""","90","sullen","NRI","different","1","D","pure","Y","17"
"","12847","same-different-html","81","952064","0.0-3.0-78.0","","8443-1","""hesitant""","""moji.wav""","90","hesitant","SRI","same","0","T","hesitant","Y","18"
"","29751","same-different-html","82","985405","0.0-3.0-79.0","","8443-1","""fragile""","""yawa.wav""","90","fragile","NAdj","same","0","T","fragile","Y","19"
"","22724","same-different-html","83","1011950","0.0-3.0-80.0","","8443-1","""tasteless""","""ukiuki.wav""","90","happy","RI","different","1","D","tasteless","Y","20"
"","7529","same-different-html","84","1022833","0.0-3.0-81.0","","8443-1","""worn out""","""boroboro.wav""","90","worn out","RI","same","0","T","worn out","Y","21"
"","4530","same-different-html","85","1030746","0.0-3.0-82.0","","8443-1","""pure""","""mukumuku.wav""","90","pure","RNAdj","same","0","T","pure","Y","22"
"","3077","same-different-html","86","1037293","0.0-3.0-83.0","","8443-1","""decisive""","""pisha.wav""","90","decisive","NRI","same","0","T","decisive","Y","23"
"","3372","same-different-html","87","1043682","0.0-3.0-84.0","","8443-1","""comfortable""","""raku.wav""","191","comfortable","NAdj","same","1","T","comfortable","Y","24"
"","3097","same-different-html","88","1049789","0.0-3.0-85.0","","8443-1","""energetic""","""kibi.wav""","191","energetic","SRI","same","1","T","energetic","Y","25"
"","3064","same-different-html","89","1055864","0.0-3.0-86.0","","8443-1","""steaming""","""hoka.wav""","191","steaming","SRI","same","1","T","steaming","Y","26"
"","3064","same-different-html","90","1061942","0.0-3.0-87.0","","8443-1","""smooth""","""yawa.wav""","191","fragile","NAdj","different","0","D","smooth","Y","27"
"","4157","same-different-html","91","1069113","0.0-3.0-88.0","","8443-1","""harsh""","""fubifubi.wav""","191","deficient","RNAdj","different","0","D","harsh","Y","28"
"","3079","same-different-html","92","1075201","0.0-3.0-89.0","","8443-1","""comfortable""","""kachinkachin.wav""","90","offended","RNRI","different","1","D","comfortable","Y","29"
"","2969","same-different-html","93","1081200","0.0-3.0-90.0","","8443-1","""glossy""","""tsuyatsuya.wav""","191","glossy","RI","same","1","T","glossy","Y","30"
"","3177","same-different-html","94","1087395","0.0-3.0-91.0","","8443-1","""harsh""","""koku.wav""","191","harsh","NAdj","same","1","T","harsh","Y","31"
"","3016","same-different-html","95","1093424","0.0-3.0-92.0","","8443-1","""whispering""","""hoka.wav""","191","steaming","SRI","different","0","D","whispering","Y","32"
"","507","same-different-html","96","1096945","0.0-3.0-93.0","","8443-1","""worn out""","""potchari.wav""","191","plump","NRI","different","0","D","worn out","Y","33"
"","3162","same-different-html","97","1103120","0.0-3.0-94.0","","8443-1","""hesitant""","""batchiribatchiri.wav""","191","perfect","RNRI","different","0","D","hesitant","Y","34"
"","3054","same-different-html","98","1109186","0.0-3.0-95.0","","8443-1","""energetic""","""hisohiso.wav""","191","whispering","RI","different","0","D","energetic","Y","35"
"","2971","same-different-html","99","1115169","0.0-3.0-96.0","","8443-1","""sullen""","""musu.wav""","191","sullen","NRI","same","1","T","sullen","Y","36"
"","3185","same-different-html","100","1121368","0.0-3.0-97.0","","8443-1","""decisive""","""moji.wav""","90","hesitant","SRI","different","1","D","decisive","Y","37"
"","3793","same-different-html","101","1129002","0.0-3.0-98.0","","8443-1","""crowded""","""nopperinopperi.wav""","90","smooth","RNRI","different","1","D","crowded","Y","38"
"","3034","same-different-html","102","1135095","0.0-3.0-99.0","","8443-1","""glossy""","""boroboro.wav""","90","worn out","RI","different","1","D","glossy","Y","39"
"","3236","same-different-html","103","1142145","0.0-3.0-100.0","","8443-1","""crowded""","""bisshiribisshiri.wav""","90","crowded","RNRI","same","0","T","crowded","Y","40"
"","2935","same-different-html","104","1149229","0.0-3.0-101.0","","8443-1","""smooth""","""nopperinopperi.wav""","90","smooth","RNRI","same","0","T","smooth","Y","41"
"","2945","same-different-html","105","1157161","0.0-3.0-102.0","","8443-1","""happy""","""pisha.wav""","90","decisive","NRI","different","1","D","happy","Y","42"
"","2926","same-different-html","106","1163100","0.0-3.0-103.0","","8443-1","""fragile""","""raku.wav""","191","comfortable","NAdj","different","0","D","fragile","Y","43"
"","2808","same-different-html","107","1169065","0.0-3.0-104.0","","8443-1","""perfect""","""batchiribatchiri.wav""","90","perfect","RNRI","same","0","T","perfect","Y","44"
"","378","same-different-html","108","1172456","0.0-3.0-105.0","","8443-1","""offended""","""kachinkachin.wav""","90","offended","RNRI","same","0","T","offended","Y","45"
"","318","same-different-html","109","1175788","0.0-3.0-106.0","","8443-1","""whispering""","""hisohiso.wav""","90","whispering","RI","same","0","T","whispering","Y","46"
"","253","same-different-html","110","1179058","0.0-3.0-107.0","","8443-1","""deficient""","""fubifubi.wav""","90","deficient","RNAdj","same","0","T","deficient","Y","47"
"","288","same-different-html","111","1182363","0.0-3.0-108.0","","8443-1","""steaming""","""furifuri.wav""","90","disadvantaged","RNAdj","different","1","D","steaming","Y","48"
"[{""page_index"":0,""viewing_time"":18722}]","18724","instructions","112","1202089","0.0-3.0-109.0","","","","","","","","","","","","",""
