"view_history","rt","trial_type","trial_index","time_elapsed","internal_node_id","responses","Id","word","sound","key_press","TrueMeaning","WordType","answer","correct","TrialType","TargetMeaning","LegalTrial","trialNum"
"[{""page_index"":0,""viewing_time"":5401}]","5402","instructions","0","5402","0.0-0.0","","","","","","","","","","","","",""
"[{""page_index"":0,""viewing_time"":3044},{""page_index"":1,""viewing_time"":7839},{""page_index"":2,""viewing_time"":4285},{""page_index"":3,""viewing_time"":15108},{""page_index"":4,""viewing_time"":36756}]","67032","instructions","1","72434","0.0-1.0","","","","","","","","","","","","",""
"","12730","survey-multi-choice","2","85167","0.0-2.0","{""Q0"":""Yes"",""Q1"":""Yes"",""Q2"":""Yes"",""Q3"":""Yes"",""Q4"":""Yes""}","","","","","","","","","","","",""
"[{""page_index"":0,""viewing_time"":2781},{""page_index"":1,""viewing_time"":5052}]","7834","instructions","3","93001","0.0-3.0-0.0","","","","","","","","","","","","",""
"","1906","same-different-html-trial","4","100922","0.0-3.0-1.0","","0","""sushi""","""prc_sushi.wav""","32","","","","","","","",""
"[{""page_index"":0,""viewing_time"":7950}]","7950","instructions","5","109872","0.0-3.0-2.0","","","","","","","","","","","","",""
"","7163","same-different-html","6","119042","0.0-3.0-3.0","","0","""sushi""","""prc_sushi.wav""","191","","","same","1","","","0",""
"[{""page_index"":0,""viewing_time"":5228}]","5229","instructions","7","125273","0.0-3.0-4.0","","","","","","","","","","","","",""
"","4340","same-different-html","8","131618","0.0-3.0-5.0","","0","""cat""","""prc_sushi.wav""","90","","","different","1","","","0",""
"[{""page_index"":0,""viewing_time"":6115},{""page_index"":1,""viewing_time"":2272}]","8388","instructions","9","141007","0.0-3.0-6.0","","","","","","","","","","","","",""
"","1850","same-different-html-trial","10","148866","0.0-3.0-7.0","","0","""thank you""","""prc_arigato.wav""","32","","","","","","","",""
"[{""page_index"":0,""viewing_time"":10216}]","10216","instructions","11","160084","0.0-3.0-8.0","","","","","","","","","","","","",""
"","4136","same-different-html","12","166226","0.0-3.0-9.0","","0","""thank you""","""prc_arigato.wav""","191","","","same","1","","","0",""
"","3448","same-different-html","13","172683","0.0-3.0-10.0","","0","""cat""","""prc_arigato.wav""","90","","","different","1","","","0",""
"[{""page_index"":0,""viewing_time"":3759},{""page_index"":1,""viewing_time"":18416}]","22175","instructions","14","195859","0.0-3.0-11.0","","","","","","","","","","","","",""
"","3478","same-different-html-trial","15","205345","0.0-3.0-12.0","","131-3","""beneficial""","""toku.wav""","32","beneficial","NAdj","","","","","","1"
"","1402","same-different-html-trial","16","213760","0.0-3.0-13.0","","131-3","""useless""","""damedame.wav""","32","useless","RNAdj","","","","","","2"
"","4816","same-different-html-trial","17","225586","0.0-3.0-14.0","","131-3","""sudden""","""pata.wav""","32","sudden","NRI","","","","","","3"
"","10726","same-different-html-trial","18","243326","0.0-3.0-15.0","","131-3","""glossy""","""tsuyatsuya.wav""","32","glossy","RI","","","","","","4"
"","13927","same-different-html-trial","19","264266","0.0-3.0-16.0","","131-3","""sloppy""","""zatsu.wav""","32","sloppy","NAdj","","","","","","5"
"","1677","same-different-html-trial","20","272954","0.0-3.0-17.0","","131-3","""plump""","""potcharipotchari.wav""","32","plump","RNRI","","","","","","6"
"","1885","same-different-html-trial","21","281850","0.0-3.0-18.0","","131-3","""worn out""","""boroboro.wav""","32","worn out","RI","","","","","","7"
"","1517","same-different-html-trial","22","290378","0.0-3.0-19.0","","131-3","""rare""","""maremare.wav""","32","rare","RNAdj","","","","","","8"
"","1238","same-different-html-trial","23","298627","0.0-3.0-20.0","","131-3","""suspenseful""","""hara.wav""","32","suspenseful","SRI","","","","","","9"
"","3112","same-different-html-trial","24","308746","0.0-3.0-21.0","","131-3","""clear""","""kukkiri.wav""","32","clear","NRI","","","","","","10"
"","2437","same-different-html-trial","25","318193","0.0-3.0-22.0","","131-3","""harsh""","""koku.wav""","32","harsh","NAdj","","","","","","11"
"","1908","same-different-html-trial","26","327114","0.0-3.0-23.0","","131-3","""fat""","""debu.wav""","32","fat","SRI","","","","","","12"
"","2025","same-different-html-trial","27","336346","0.0-3.0-24.0","","131-3","""chatty""","""bera.wav""","32","chatty","SRI","","","","","","13"
"","4806","same-different-html-trial","28","348162","0.0-3.0-25.0","","131-3","""careful""","""jikkurijikkuri.wav""","32","careful","RNRI","","","","","","14"
"","1572","same-different-html-trial","29","356745","0.0-3.0-26.0","","131-3","""stupid""","""baka.wav""","32","stupid","NAdj","","","","","","15"
"","3278","same-different-html-trial","30","367034","0.0-3.0-27.0","","131-3","""chubby""","""bukubuku.wav""","32","chubby","RI","","","","","","16"
"","3037","same-different-html-trial","31","377082","0.0-3.0-28.0","","131-3","""pure""","""mukumuku.wav""","32","pure","RNAdj","","","","","","17"
"","2428","same-different-html-trial","32","386522","0.0-3.0-29.0","","131-3","""excessive""","""kadokado.wav""","32","excessive","RNAdj","","","","","","18"
"","2468","same-different-html-trial","33","396002","0.0-3.0-30.0","","131-3","""fast asleep""","""gussuri.wav""","32","fast asleep","NRI","","","","","","19"
"","2695","same-different-html-trial","34","405706","0.0-3.0-31.0","","131-3","""nonchalantly""","""kerokero.wav""","32","nonchalantly","RNRI","","","","","","20"
"","2592","same-different-html-trial","35","415306","0.0-3.0-32.0","","131-3","""sullen""","""musu.wav""","32","sullen","NRI","","","","","","21"
"","3286","same-different-html-trial","36","425603","0.0-3.0-33.0","","131-3","""crowded""","""bisshiribisshiri.wav""","32","crowded","RNRI","","","","","","22"
"","3037","same-different-html-trial","37","435650","0.0-3.0-34.0","","131-3","""humid""","""mushimushi.wav""","32","humid","RI","","","","","","23"
"","2046","same-different-html-trial","38","444705","0.0-3.0-35.0","","131-3","""noisy""","""gaya.wav""","32","noisy","SRI","","","","","","24"
"","1693","same-different-html-trial","39","453410","0.0-3.0-36.0","","131-3","""careful""","""jikkurijikkuri.wav""","32","careful","RNRI","","","","","","25"
"","1636","same-different-html-trial","40","462058","0.0-3.0-37.0","","131-3","""harsh""","""koku.wav""","32","harsh","NAdj","","","","","","26"
"","2479","same-different-html-trial","41","471545","0.0-3.0-38.0","","131-3","""stupid""","""baka.wav""","32","stupid","NAdj","","","","","","27"
"","2462","same-different-html-trial","42","481018","0.0-3.0-39.0","","131-3","""beneficial""","""toku.wav""","32","beneficial","NAdj","","","","","","28"
"","1141","same-different-html-trial","43","489170","0.0-3.0-40.0","","131-3","""sudden""","""pata.wav""","32","sudden","NRI","","","","","","29"
"","1261","same-different-html-trial","44","497442","0.0-3.0-41.0","","131-3","""fast asleep""","""gussuri.wav""","32","fast asleep","NRI","","","","","","30"
"","3244","same-different-html-trial","45","507698","0.0-3.0-42.0","","131-3","""glossy""","""tsuyatsuya.wav""","32","glossy","RI","","","","","","31"
"","598","same-different-html-trial","46","515305","0.0-3.0-43.0","","131-3","""rare""","""maremare.wav""","32","rare","RNAdj","","","","","","32"
"","1760","same-different-html-trial","47","524075","0.0-3.0-44.0","","131-3","""humid""","""mushimushi.wav""","32","humid","RI","","","","","","33"
"","1395","same-different-html-trial","48","532482","0.0-3.0-45.0","","131-3","""pure""","""mukumuku.wav""","32","pure","RNAdj","","","","","","34"
"","1334","same-different-html-trial","49","540826","0.0-3.0-46.0","","131-3","""worn out""","""boroboro.wav""","32","worn out","RI","","","","","","35"
"","1685","same-different-html-trial","50","549521","0.0-3.0-47.0","","131-3","""fat""","""debu.wav""","32","fat","SRI","","","","","","36"
"","3133","same-different-html-trial","51","559666","0.0-3.0-48.0","","131-3","""sloppy""","""zatsu.wav""","32","sloppy","NAdj","","","","","","37"
"","1246","same-different-html-trial","52","567922","0.0-3.0-49.0","","131-3","""suspenseful""","""hara.wav""","32","suspenseful","SRI","","","","","","38"
"","1359","same-different-html-trial","53","576290","0.0-3.0-50.0","","131-3","""nonchalantly""","""kerokero.wav""","32","nonchalantly","RNRI","","","","","","39"
"","1732","same-different-html-trial","54","585033","0.0-3.0-51.0","","131-3","""excessive""","""kadokado.wav""","32","excessive","RNAdj","","","","","","40"
"","4061","same-different-html-trial","55","596106","0.0-3.0-52.0","","131-3","""chatty""","""bera.wav""","32","chatty","SRI","","","","","","41"
"","1269","same-different-html-trial","56","604386","0.0-3.0-53.0","","131-3","""useless""","""damedame.wav""","32","useless","RNAdj","","","","","","42"
"","1483","same-different-html-trial","57","612882","0.0-3.0-54.0","","131-3","""clear""","""kukkiri.wav""","32","clear","NRI","","","","","","43"
"","1821","same-different-html-trial","58","621713","0.0-3.0-55.0","","131-3","""crowded""","""bisshiribisshiri.wav""","32","crowded","RNRI","","","","","","44"
"","1623","same-different-html-trial","59","630347","0.0-3.0-56.0","","131-3","""chubby""","""bukubuku.wav""","32","chubby","RI","","","","","","45"
"","2191","same-different-html-trial","60","639545","0.0-3.0-57.0","","131-3","""plump""","""potcharipotchari.wav""","32","plump","RNRI","","","","","","46"
"","1350","same-different-html-trial","61","647905","0.0-3.0-58.0","","131-3","""sullen""","""musu.wav""","32","sullen","NRI","","","","","","47"
"","1550","same-different-html-trial","62","656466","0.0-3.0-59.0","","131-3","""noisy""","""gaya.wav""","32","noisy","SRI","","","","","","48"
"[{""page_index"":0,""viewing_time"":18548}]","18549","instructions","63","676015","0.0-3.0-60.0","","","","","","","","","","","","",""
"","4126","same-different-html","64","682145","0.0-3.0-61.0","","131-3","""sloppy""","""jikkurijikkuri.wav""","191","careful","RNRI","different","0","D","sloppy","Y","1"
"","3172","same-different-html","65","688323","0.0-3.0-62.0","","131-3","""beneficial""","""toku.wav""","90","beneficial","NAdj","same","0","T","beneficial","Y","2"
"","2146","same-different-html","66","693474","0.0-3.0-63.0","","131-3","""chubby""","""bukubuku.wav""","191","chubby","RI","same","1","T","chubby","Y","3"
"","3796","same-different-html","67","700274","0.0-3.0-64.0","","131-3","""sudden""","""gussuri.wav""","90","fast asleep","NRI","different","1","D","sudden","Y","4"
"","2970","same-different-html","68","706250","0.0-3.0-65.0","","131-3","""useless""","""damedame.wav""","191","useless","RNAdj","same","1","T","useless","Y","5"
"","2966","same-different-html","69","712226","0.0-3.0-66.0","","131-3","""worn out""","""boroboro.wav""","191","worn out","RI","same","1","T","worn out","Y","6"
"","2799","same-different-html","70","718034","0.0-3.0-67.0","","131-3","""rare""","""maremare.wav""","191","rare","RNAdj","same","1","T","rare","Y","7"
"","3043","same-different-html","71","724084","0.0-3.0-68.0","","131-3","""stupid""","""baka.wav""","191","stupid","NAdj","same","1","T","stupid","Y","8"
"","2977","same-different-html","72","730066","0.0-3.0-69.0","","131-3","""clear""","""baka.wav""","90","stupid","NAdj","different","1","D","clear","Y","9"
"","3140","same-different-html","73","736211","0.0-3.0-70.0","","131-3","""useless""","""zatsu.wav""","90","sloppy","NAdj","different","1","D","useless","Y","10"
"","2816","same-different-html","74","742034","0.0-3.0-71.0","","131-3","""harsh""","""koku.wav""","191","harsh","NAdj","same","1","T","harsh","Y","11"
"","2789","same-different-html","75","747827","0.0-3.0-72.0","","131-3","""excessive""","""kadokado.wav""","191","excessive","RNAdj","same","1","T","excessive","Y","12"
"","2786","same-different-html","76","753618","0.0-3.0-73.0","","131-3","""nonchalantly""","""kerokero.wav""","191","nonchalantly","RNRI","same","1","T","nonchalantly","Y","13"
"","3377","same-different-html","77","760003","0.0-3.0-74.0","","131-3","""sloppy""","""zatsu.wav""","90","sloppy","NAdj","same","0","T","sloppy","Y","14"
"","2891","same-different-html","78","765898","0.0-3.0-75.0","","131-3","""sullen""","""mukumuku.wav""","90","pure","RNAdj","different","1","D","sullen","Y","15"
"","3003","same-different-html","79","771907","0.0-3.0-76.0","","131-3","""sudden""","""pata.wav""","90","sudden","NRI","same","0","T","sudden","Y","16"
"","3859","same-different-html","80","778770","0.0-3.0-77.0","","131-3","""pure""","""mukumuku.wav""","191","pure","RNAdj","same","1","T","pure","Y","17"
"","2850","same-different-html","81","784627","0.0-3.0-78.0","","131-3","""chatty""","""bera.wav""","191","chatty","SRI","same","1","T","chatty","Y","18"
"","3304","same-different-html","82","790938","0.0-3.0-79.0","","131-3","""nonchalantly""","""potcharipotchari.wav""","191","plump","RNRI","different","0","D","nonchalantly","Y","19"
"","2793","same-different-html","83","796739","0.0-3.0-80.0","","131-3","""chubby""","""maremare.wav""","90","rare","RNAdj","different","1","D","chubby","Y","20"
"","2880","same-different-html","84","802626","0.0-3.0-81.0","","131-3","""noisy""","""hara.wav""","191","suspenseful","SRI","different","0","D","noisy","Y","21"
"","2819","same-different-html","85","808451","0.0-3.0-82.0","","131-3","""plump""","""potcharipotchari.wav""","191","plump","RNRI","same","1","T","plump","Y","22"
"","3082","same-different-html","86","814539","0.0-3.0-83.0","","131-3","""suspenseful""","""hara.wav""","191","suspenseful","SRI","same","1","T","suspenseful","Y","23"
"","2865","same-different-html","87","820410","0.0-3.0-84.0","","131-3","""careful""","""kerokero.wav""","191","nonchalantly","RNRI","different","0","D","careful","Y","24"
"","4088","same-different-html","88","827507","0.0-3.0-85.0","","131-3","""humid""","""mushimushi.wav""","191","humid","RI","same","1","T","humid","Y","25"
"","2914","same-different-html","89","833427","0.0-3.0-86.0","","131-3","""plump""","""pata.wav""","90","sudden","NRI","different","1","D","plump","Y","26"
"","3378","same-different-html","90","839811","0.0-3.0-87.0","","131-3","""noisy""","""gaya.wav""","90","noisy","SRI","same","0","T","noisy","Y","27"
"","2820","same-different-html","91","845635","0.0-3.0-88.0","","131-3","""worn out""","""gaya.wav""","90","noisy","SRI","different","1","D","worn out","Y","28"
"","3009","same-different-html","92","851650","0.0-3.0-89.0","","131-3","""careful""","""jikkurijikkuri.wav""","191","careful","RNRI","same","1","T","careful","Y","29"
"","2802","same-different-html","93","857459","0.0-3.0-90.0","","131-3","""glossy""","""tsuyatsuya.wav""","191","glossy","RI","same","1","T","glossy","Y","30"
"","2840","same-different-html","94","863306","0.0-3.0-91.0","","131-3","""humid""","""toku.wav""","90","beneficial","NAdj","different","1","D","humid","Y","31"
"","2810","same-different-html","95","869123","0.0-3.0-92.0","","131-3","""stupid""","""bera.wav""","90","chatty","SRI","different","1","D","stupid","Y","32"
"","2737","same-different-html","96","874867","0.0-3.0-93.0","","131-3","""fast asleep""","""bisshiribisshiri.wav""","191","crowded","RNRI","different","0","D","fast asleep","Y","33"
"","2875","same-different-html","97","880747","0.0-3.0-94.0","","131-3","""harsh""","""mushimushi.wav""","90","humid","RI","different","1","D","harsh","Y","34"
"","2593","same-different-html","98","886346","0.0-3.0-95.0","","131-3","""excessive""","""koku.wav""","90","harsh","NAdj","different","1","D","excessive","Y","35"
"","2810","same-different-html","99","892163","0.0-3.0-96.0","","131-3","""pure""","""kukkiri.wav""","191","clear","NRI","different","0","D","pure","Y","36"
"","3017","same-different-html","100","898186","0.0-3.0-97.0","","131-3","""fat""","""debu.wav""","191","fat","SRI","same","1","T","fat","Y","37"
"","2780","same-different-html","101","903971","0.0-3.0-98.0","","131-3","""fat""","""boroboro.wav""","90","worn out","RI","different","1","D","fat","Y","38"
"","3073","same-different-html","102","910050","0.0-3.0-99.0","","131-3","""rare""","""debu.wav""","90","fat","SRI","different","1","D","rare","Y","39"
"","3571","same-different-html","103","916627","0.0-3.0-100.0","","131-3","""sullen""","""musu.wav""","90","sullen","NRI","same","0","T","sullen","Y","40"
"","2809","same-different-html","104","922443","0.0-3.0-101.0","","131-3","""suspenseful""","""kadokado.wav""","90","excessive","RNAdj","different","1","D","suspenseful","Y","41"
"","3154","same-different-html","105","928603","0.0-3.0-102.0","","131-3","""chatty""","""musu.wav""","191","sullen","NRI","different","0","D","chatty","Y","42"
"","2826","same-different-html","106","934434","0.0-3.0-103.0","","131-3","""glossy""","""bukubuku.wav""","90","chubby","RI","different","1","D","glossy","Y","43"
"","2859","same-different-html","107","940299","0.0-3.0-104.0","","131-3","""clear""","""kukkiri.wav""","90","clear","NRI","same","0","T","clear","Y","44"
"","2753","same-different-html","108","946058","0.0-3.0-105.0","","131-3","""crowded""","""tsuyatsuya.wav""","191","glossy","RI","different","0","D","crowded","Y","45"
"","2817","same-different-html","109","951883","0.0-3.0-106.0","","131-3","""beneficial""","""damedame.wav""","191","useless","RNAdj","different","0","D","beneficial","Y","46"
"","2601","same-different-html","110","957490","0.0-3.0-107.0","","131-3","""crowded""","""bisshiribisshiri.wav""","90","crowded","RNRI","same","0","T","crowded","Y","47"
"","2747","same-different-html","111","963243","0.0-3.0-108.0","","131-3","""fast asleep""","""gussuri.wav""","90","fast asleep","NRI","same","0","T","fast asleep","Y","48"
"[{""page_index"":0,""viewing_time"":14814}]","14814","instructions","112","979060","0.0-3.0-109.0","","","","","","","","","","","","",""
