"view_history","rt","trial_type","trial_index","time_elapsed","internal_node_id","responses","Id","word","sound","key_press","TrueMeaning","WordType","answer","correct","TrialType","TargetMeaning","LegalTrial","trialNum"
"[{""page_index"":0,""viewing_time"":7353}]","7353","instructions","0","7355","0.0-0.0","","","","","","","","","","","","",""
"[{""page_index"":0,""viewing_time"":1726},{""page_index"":1,""viewing_time"":2172},{""page_index"":2,""viewing_time"":2900},{""page_index"":3,""viewing_time"":8340},{""page_index"":4,""viewing_time"":41929}]","57068","instructions","1","64425","0.0-1.0","","","","","","","","","","","","",""
"","10201","survey-multi-choice","2","74633","0.0-2.0","{""Q0"":""Yes"",""Q1"":""Yes"",""Q2"":""Yes"",""Q3"":""Yes"",""Q4"":""Yes""}","","","","","","","","","","","",""
"[{""page_index"":0,""viewing_time"":1482},{""page_index"":1,""viewing_time"":3189}]","4671","instructions","3","79304","0.0-3.0-0.0","","","","","","","","","","","","",""
"","2591","same-different-html-trial","4","87923","0.0-3.0-1.0","","0","""sushi""","""prc_sushi.wav""","32","","","","","","","",""
"[{""page_index"":0,""viewing_time"":4834}]","4834","instructions","5","93758","0.0-3.0-2.0","","","","","","","","","","","","",""
"","7240","same-different-html","6","103016","0.0-3.0-3.0","","0","""sushi""","""prc_sushi.wav""","191","","","same","1","","","0",""
"[{""page_index"":0,""viewing_time"":2689}]","2689","instructions","7","106706","0.0-3.0-4.0","","","","","","","","","","","","",""
"","3211","same-different-html","8","111926","0.0-3.0-5.0","","0","""cat""","""prc_sushi.wav""","90","","","different","1","","","0",""
"[{""page_index"":0,""viewing_time"":2955},{""page_index"":1,""viewing_time"":2221}]","5176","instructions","9","118104","0.0-3.0-6.0","","","","","","","","","","","","",""
"","1555","same-different-html-trial","10","125674","0.0-3.0-7.0","","0","""thank you""","""prc_arigato.wav""","32","","","","","","","",""
"[{""page_index"":0,""viewing_time"":2693}]","2693","instructions","11","129369","0.0-3.0-8.0","","","","","","","","","","","","",""
"","3192","same-different-html","12","134571","0.0-3.0-9.0","","0","""thank you""","""prc_arigato.wav""","191","","","same","1","","","0",""
"","2807","same-different-html","13","140387","0.0-3.0-10.0","","0","""cat""","""prc_arigato.wav""","90","","","different","1","","","0",""
"[{""page_index"":0,""viewing_time"":2586},{""page_index"":1,""viewing_time"":15105}]","17691","instructions","14","159080","0.0-3.0-11.0","","","","","","","","","","","","",""
"","1410","same-different-html-trial","15","166501","0.0-3.0-12.0","","539-5","""comfortable""","""rakuraku.wav""","32","comfortable","RNAdj","","","","","","1"
"","7223","same-different-html-trial","16","180739","0.0-3.0-13.0","","539-5","""sullen""","""musumusu.wav""","32","sullen","RNRI","","","","","","2"
"","1366","same-different-html-trial","17","189121","0.0-3.0-14.0","","539-5","""harsh""","""kokukoku.wav""","32","harsh","RNAdj","","","","","","3"
"","1195","same-different-html-trial","18","197334","0.0-3.0-15.0","","539-5","""gaudy""","""kabikabi.wav""","32","gaudy","RNAdj","","","","","","4"
"","540","same-different-html-trial","19","204887","0.0-3.0-16.0","","539-5","""hesitant""","""mojimoji.wav""","32","hesitant","RI","","","","","","5"
"","1949","same-different-html-trial","20","213851","0.0-3.0-17.0","","539-5","""chatty""","""bera.wav""","32","chatty","SRI","","","","","","6"
"","349","same-different-html-trial","21","221210","0.0-3.0-18.0","","539-5","""crowded""","""bisshiribisshiri.wav""","32","crowded","RNRI","","","","","","7"
"","1346","same-different-html-trial","22","229573","0.0-3.0-19.0","","539-5","""sturdy""","""gashi.wav""","32","sturdy","NRI","","","","","","8"
"","1280","same-different-html-trial","23","237871","0.0-3.0-20.0","","539-5","""whispering""","""hiso.wav""","32","whispering","SRI","","","","","","9"
"","555","same-different-html-trial","24","245443","0.0-3.0-21.0","","539-5","""stupid""","""baka.wav""","32","stupid","NAdj","","","","","","10"
"","1793","same-different-html-trial","25","254251","0.0-3.0-22.0","","539-5","""shivering""","""buruburu.wav""","32","shivering","RI","","","","","","11"
"","1902","same-different-html-trial","26","263167","0.0-3.0-23.0","","539-5","""resolute""","""bassari.wav""","32","resolute","NRI","","","","","","12"
"","1854","same-different-html-trial","27","272037","0.0-3.0-24.0","","539-5","""beneficial""","""toku.wav""","32","beneficial","NAdj","","","","","","13"
"","1729","same-different-html-trial","28","280777","0.0-3.0-25.0","","539-5","""agitated""","""hikuhiku.wav""","32","agitated","RI","","","","","","14"
"","4043","same-different-html-trial","29","291834","0.0-3.0-26.0","","539-5","""careful""","""jikkuri.wav""","32","careful","NRI","","","","","","15"
"","1403","same-different-html-trial","30","300248","0.0-3.0-27.0","","539-5","""fat""","""debu.wav""","32","fat","SRI","","","","","","16"
"","3801","same-different-html-trial","31","311065","0.0-3.0-28.0","","539-5","""sudden""","""patapata.wav""","32","sudden","RNRI","","","","","","17"
"","2275","same-different-html-trial","32","320354","0.0-3.0-29.0","","539-5","""happy""","""uki.wav""","32","happy","SRI","","","","","","18"
"","1272","same-different-html-trial","33","328640","0.0-3.0-30.0","","539-5","""vulgar""","""zoku.wav""","32","vulgar","NAdj","","","","","","19"
"","1790","same-different-html-trial","34","338222","0.0-3.0-31.0","","539-5","""rude""","""zukezuke.wav""","32","rude","RI","","","","","","20"
"","378","same-different-html-trial","35","345617","0.0-3.0-32.0","","539-5","""fast asleep""","""gussurigussuri.wav""","32","fast asleep","RNRI","","","","","","21"
"","1670","same-different-html-trial","36","354302","0.0-3.0-33.0","","539-5","""subdued""","""jimi.wav""","32","subdued","NAdj","","","","","","22"
"","2429","same-different-html-trial","37","363745","0.0-3.0-34.0","","539-5","""deficient""","""fubifubi.wav""","32","deficient","RNAdj","","","","","","23"
"","474","same-different-html-trial","38","371229","0.0-3.0-35.0","","539-5","""to change ocmpletely""","""gara.wav""","32","to change ocmpletely","NRI","","","","","","24"
"","688","same-different-html-trial","39","378932","0.0-3.0-36.0","","539-5","""resolute""","""bassari.wav""","32","resolute","NRI","","","","","","25"
"","1813","same-different-html-trial","40","387759","0.0-3.0-37.0","","539-5","""crowded""","""bisshiribisshiri.wav""","32","crowded","RNRI","","","","","","26"
"","3193","same-different-html-trial","41","397961","0.0-3.0-38.0","","539-5","""whispering""","""hiso.wav""","32","whispering","SRI","","","","","","27"
"","4178","same-different-html-trial","42","409153","0.0-3.0-39.0","","539-5","""sullen""","""musumusu.wav""","32","sullen","RNRI","","","","","","28"
"","2642","same-different-html-trial","43","418807","0.0-3.0-40.0","","539-5","""hesitant""","""mojimoji.wav""","32","hesitant","RI","","","","","","29"
"","6215","same-different-html-trial","44","432036","0.0-3.0-41.0","","539-5","""rude""","""zukezuke.wav""","32","rude","RI","","","","","","30"
"","404","same-different-html-trial","45","439453","0.0-3.0-42.0","","539-5","""fat""","""debu.wav""","32","fat","SRI","","","","","","31"
"","435","same-different-html-trial","46","446902","0.0-3.0-43.0","","539-5","""careful""","""jikkuri.wav""","32","careful","NRI","","","","","","32"
"","272","same-different-html-trial","47","454188","0.0-3.0-44.0","","539-5","""chatty""","""bera.wav""","32","chatty","SRI","","","","","","33"
"","2253","same-different-html-trial","48","463458","0.0-3.0-45.0","","539-5","""fast asleep""","""gussurigussuri.wav""","32","fast asleep","RNRI","","","","","","34"
"","1244","same-different-html-trial","49","471715","0.0-3.0-46.0","","539-5","""vulgar""","""zoku.wav""","32","vulgar","NAdj","","","","","","35"
"","1033","same-different-html-trial","50","479761","0.0-3.0-47.0","","539-5","""deficient""","""fubifubi.wav""","32","deficient","RNAdj","","","","","","36"
"","1144","same-different-html-trial","51","487918","0.0-3.0-48.0","","539-5","""subdued""","""jimi.wav""","32","subdued","NAdj","","","","","","37"
"","5290","same-different-html-trial","52","500219","0.0-3.0-49.0","","539-5","""sudden""","""patapata.wav""","32","sudden","RNRI","","","","","","38"
"","2117","same-different-html-trial","53","509352","0.0-3.0-50.0","","539-5","""agitated""","""hikuhiku.wav""","32","agitated","RI","","","","","","39"
"","2616","same-different-html-trial","54","518988","0.0-3.0-51.0","","539-5","""to change ocmpletely""","""gara.wav""","32","to change ocmpletely","NRI","","","","","","40"
"","3069","same-different-html-trial","55","529072","0.0-3.0-52.0","","539-5","""harsh""","""kokukoku.wav""","32","harsh","RNAdj","","","","","","41"
"","1901","same-different-html-trial","56","537988","0.0-3.0-53.0","","539-5","""shivering""","""buruburu.wav""","32","shivering","RI","","","","","","42"
"","425","same-different-html-trial","57","545432","0.0-3.0-54.0","","539-5","""happy""","""uki.wav""","32","happy","SRI","","","","","","43"
"","5167","same-different-html-trial","58","557614","0.0-3.0-55.0","","539-5","""beneficial""","""toku.wav""","32","beneficial","NAdj","","","","","","44"
"","1274","same-different-html-trial","59","565905","0.0-3.0-56.0","","539-5","""sturdy""","""gashi.wav""","32","sturdy","NRI","","","","","","45"
"","639","same-different-html-trial","60","573561","0.0-3.0-57.0","","539-5","""stupid""","""baka.wav""","32","stupid","NAdj","","","","","","46"
"","1400","same-different-html-trial","61","581976","0.0-3.0-58.0","","539-5","""gaudy""","""kabikabi.wav""","32","gaudy","RNAdj","","","","","","47"
"","1280","same-different-html-trial","62","590270","0.0-3.0-59.0","","539-5","""comfortable""","""rakuraku.wav""","32","comfortable","RNAdj","","","","","","48"
"[{""page_index"":0,""viewing_time"":15597}]","15597","instructions","63","606869","0.0-3.0-60.0","","","","","","","","","","","","",""
"","1775","same-different-html","64","610651","0.0-3.0-61.0","","539-5","""chatty""","""debu.wav""","90","fat","SRI","different","1","D","chatty","Y","1"
"","1666","same-different-html","65","615323","0.0-3.0-62.0","","539-5","""sudden""","""kabikabi.wav""","191","gaudy","RNAdj","different","0","D","sudden","Y","2"
"","1261","same-different-html","66","619592","0.0-3.0-63.0","","539-5","""stupid""","""baka.wav""","90","stupid","NAdj","same","0","T","stupid","Y","3"
"","1228","same-different-html","67","623831","0.0-3.0-64.0","","539-5","""fat""","""debu.wav""","191","fat","SRI","same","1","T","fat","Y","4"
"","1650","same-different-html","68","628489","0.0-3.0-65.0","","539-5","""resolute""","""bassari.wav""","191","resolute","NRI","same","1","T","resolute","Y","5"
"","1449","same-different-html","69","632953","0.0-3.0-66.0","","539-5","""happy""","""uki.wav""","191","happy","SRI","same","1","T","happy","Y","6"
"","1065","same-different-html","70","637028","0.0-3.0-67.0","","539-5","""deficient""","""gashi.wav""","90","sturdy","NRI","different","1","D","deficient","Y","7"
"","1520","same-different-html","71","641560","0.0-3.0-68.0","","539-5","""subdued""","""jimi.wav""","90","subdued","NAdj","same","0","T","subdued","Y","8"
"","1465","same-different-html","72","646032","0.0-3.0-69.0","","539-5","""subdued""","""uki.wav""","191","happy","SRI","different","0","D","subdued","Y","9"
"","1829","same-different-html","73","650866","0.0-3.0-70.0","","539-5","""stupid""","""gussurigussuri.wav""","90","fast asleep","RNRI","different","1","D","stupid","Y","10"
"","1483","same-different-html","74","655360","0.0-3.0-71.0","","539-5","""to change ocmpletely""","""mojimoji.wav""","191","hesitant","RI","different","0","D","to change ocmpletely","Y","11"
"","1475","same-different-html","75","659842","0.0-3.0-72.0","","539-5","""sullen""","""musumusu.wav""","90","sullen","RNRI","same","0","T","sullen","Y","12"
"","2115","same-different-html","76","664966","0.0-3.0-73.0","","539-5","""careful""","""gara.wav""","90","to change ocmpletely","NRI","different","1","D","careful","Y","13"
"","2367","same-different-html","77","670342","0.0-3.0-74.0","","539-5","""gaudy""","""kabikabi.wav""","191","gaudy","RNAdj","same","1","T","gaudy","Y","14"
"","1578","same-different-html","78","674928","0.0-3.0-75.0","","539-5","""chatty""","""bera.wav""","90","chatty","SRI","same","0","T","chatty","Y","15"
"","1489","same-different-html","79","679427","0.0-3.0-76.0","","539-5","""sturdy""","""gashi.wav""","90","sturdy","NRI","same","0","T","sturdy","Y","16"
"","1317","same-different-html","80","683753","0.0-3.0-77.0","","539-5","""fast asleep""","""toku.wav""","90","beneficial","NAdj","different","1","D","fast asleep","Y","17"
"","1331","same-different-html","81","688096","0.0-3.0-78.0","","539-5","""careful""","""jikkuri.wav""","191","careful","NRI","same","1","T","careful","Y","18"
"","1141","same-different-html","82","692243","0.0-3.0-79.0","","539-5","""fat""","""baka.wav""","90","stupid","NAdj","different","1","D","fat","Y","19"
"","1841","same-different-html","83","697095","0.0-3.0-80.0","","539-5","""harsh""","""musumusu.wav""","191","sullen","RNRI","different","0","D","harsh","Y","20"
"","1627","same-different-html","84","701731","0.0-3.0-81.0","","539-5","""vulgar""","""fubifubi.wav""","90","deficient","RNAdj","different","1","D","vulgar","Y","21"
"","1229","same-different-html","85","705968","0.0-3.0-82.0","","539-5","""gaudy""","""jimi.wav""","90","subdued","NAdj","different","1","D","gaudy","Y","22"
"","1749","same-different-html","86","710727","0.0-3.0-83.0","","539-5","""shivering""","""patapata.wav""","191","sudden","RNRI","different","0","D","shivering","Y","23"
"","1704","same-different-html","87","715438","0.0-3.0-84.0","","539-5","""hesitant""","""zoku.wav""","191","vulgar","NAdj","different","0","D","hesitant","Y","24"
"","1909","same-different-html","88","720355","0.0-3.0-85.0","","539-5","""comfortable""","""bisshiribisshiri.wav""","90","crowded","RNRI","different","1","D","comfortable","Y","25"
"","1226","same-different-html","89","724591","0.0-3.0-86.0","","539-5","""whispering""","""hiso.wav""","90","whispering","SRI","same","0","T","whispering","Y","26"
"","1864","same-different-html","90","729464","0.0-3.0-87.0","","539-5","""fast asleep""","""gussurigussuri.wav""","191","fast asleep","RNRI","same","1","T","fast asleep","Y","27"
"","1355","same-different-html","91","733827","0.0-3.0-88.0","","539-5","""agitated""","""hikuhiku.wav""","191","agitated","RI","same","1","T","agitated","Y","28"
"","1363","same-different-html","92","738202","0.0-3.0-89.0","","539-5","""resolute""","""kokukoku.wav""","90","harsh","RNAdj","different","1","D","resolute","Y","29"
"","1318","same-different-html","93","742533","0.0-3.0-90.0","","539-5","""sullen""","""jikkuri.wav""","90","careful","NRI","different","1","D","sullen","Y","30"
"","1500","same-different-html","94","747041","0.0-3.0-91.0","","539-5","""harsh""","""kokukoku.wav""","90","harsh","RNAdj","same","0","T","harsh","Y","31"
"","1694","same-different-html","95","751741","0.0-3.0-92.0","","539-5","""agitated""","""buruburu.wav""","191","shivering","RI","different","0","D","agitated","Y","32"
"","1373","same-different-html","96","756120","0.0-3.0-93.0","","539-5","""rude""","""hikuhiku.wav""","191","agitated","RI","different","0","D","rude","Y","33"
"","1448","same-different-html","97","760577","0.0-3.0-94.0","","539-5","""whispering""","""rakuraku.wav""","90","comfortable","RNAdj","different","1","D","whispering","Y","34"
"","1657","same-different-html","98","765240","0.0-3.0-95.0","","539-5","""shivering""","""buruburu.wav""","90","shivering","RI","same","0","T","shivering","Y","35"
"","1730","same-different-html","99","769980","0.0-3.0-96.0","","539-5","""to change ocmpletely""","""gara.wav""","90","to change ocmpletely","NRI","same","0","T","to change ocmpletely","Y","36"
"","1662","same-different-html","100","774649","0.0-3.0-97.0","","539-5","""comfortable""","""rakuraku.wav""","191","comfortable","RNAdj","same","1","T","comfortable","Y","37"
"","2437","same-different-html","101","780094","0.0-3.0-98.0","","539-5","""crowded""","""bisshiribisshiri.wav""","90","crowded","RNRI","same","0","T","crowded","Y","38"
"","1226","same-different-html","102","784329","0.0-3.0-99.0","","539-5","""deficient""","""fubifubi.wav""","191","deficient","RNAdj","same","1","T","deficient","Y","39"
"","1390","same-different-html","103","788727","0.0-3.0-100.0","","539-5","""sturdy""","""hiso.wav""","191","whispering","SRI","different","0","D","sturdy","Y","40"
"","1232","same-different-html","104","792964","0.0-3.0-101.0","","539-5","""sudden""","""patapata.wav""","90","sudden","RNRI","same","0","T","sudden","Y","41"
"","1338","same-different-html","105","797310","0.0-3.0-102.0","","539-5","""happy""","""bera.wav""","90","chatty","SRI","different","1","D","happy","Y","42"
"","1690","same-different-html","106","802007","0.0-3.0-103.0","","539-5","""beneficial""","""zukezuke.wav""","191","rude","RI","different","0","D","beneficial","Y","43"
"","2269","same-different-html","107","807284","0.0-3.0-104.0","","539-5","""vulgar""","""zoku.wav""","90","vulgar","NAdj","same","0","T","vulgar","Y","44"
"","1415","same-different-html","108","811708","0.0-3.0-105.0","","539-5","""beneficial""","""toku.wav""","90","beneficial","NAdj","same","0","T","beneficial","Y","45"
"","1608","same-different-html","109","816322","0.0-3.0-106.0","","539-5","""hesitant""","""mojimoji.wav""","191","hesitant","RI","same","1","T","hesitant","Y","46"
"","1778","same-different-html","110","821106","0.0-3.0-107.0","","539-5","""crowded""","""bassari.wav""","90","resolute","NRI","different","1","D","crowded","Y","47"
"","1319","same-different-html","111","825434","0.0-3.0-108.0","","539-5","""rude""","""zukezuke.wav""","90","rude","RI","same","0","T","rude","Y","48"
"[{""page_index"":0,""viewing_time"":3210}]","3211","instructions","112","829646","0.0-3.0-109.0","","","","","","","","","","","","",""
