"view_history","rt","trial_type","trial_index","time_elapsed","internal_node_id","responses","Id","word","sound","key_press","TrueMeaning","WordType","answer","correct","TrialType","TargetMeaning","LegalTrial","trialNum"
"[{""page_index"":0,""viewing_time"":2620}]","2622","instructions","0","2629","0.0-0.0","","","","","","","","","","","","",""
"[{""page_index"":0,""viewing_time"":1537},{""page_index"":1,""viewing_time"":1262},{""page_index"":2,""viewing_time"":2498},{""page_index"":3,""viewing_time"":8206},{""page_index"":4,""viewing_time"":3066}]","16571","instructions","1","19203","0.0-1.0","","","","","","","","","","","","",""
"","15758","survey-multi-choice","2","34989","0.0-2.0","{""Q0"":""Yes"",""Q1"":""Yes"",""Q2"":""Yes"",""Q3"":""Yes"",""Q4"":""Yes""}","","","","","","","","","","","",""
"[{""page_index"":0,""viewing_time"":1819},{""page_index"":1,""viewing_time"":6121}]","7940","instructions","3","42930","0.0-3.0-0.0","","","","","","","","","","","","",""
"","2977","same-different-html-trial","4","51941","0.0-3.0-1.0","","0","""sushi""","""prc_sushi.wav""","32","","","","","","","",""
"[{""page_index"":0,""viewing_time"":2292}]","2294","instructions","5","55234","0.0-3.0-2.0","","","","","","","","","","","","",""
"","5271","same-different-html","6","62516","0.0-3.0-3.0","","0","""sushi""","""prc_sushi.wav""","90","","","same","0","","","0",""
"[{""page_index"":0,""viewing_time"":2066}]","2066","instructions","7","65584","0.0-3.0-4.0","","","","","","","","","","","","",""
"","11435","same-different-html","8","79026","0.0-3.0-5.0","","0","""cat""","""prc_sushi.wav""","191","","","different","0","","","0",""
"[{""page_index"":0,""viewing_time"":2535},{""page_index"":1,""viewing_time"":7041}]","9577","instructions","9","89602","0.0-3.0-6.0","","","","","","","","","","","","",""
"","4068","same-different-html-trial","10","99685","0.0-3.0-7.0","","0","""thank you""","""prc_arigato.wav""","32","","","","","","","",""
"[{""page_index"":0,""viewing_time"":2629}]","2631","instructions","11","103316","0.0-3.0-8.0","","","","","","","","","","","","",""
"","5220","same-different-html","12","110543","0.0-3.0-9.0","","0","""thank you""","""prc_arigato.wav""","191","","","same","1","","","0",""
"","6365","same-different-html","13","119919","0.0-3.0-10.0","","0","""cat""","""prc_arigato.wav""","90","","","different","1","","","0",""
"[{""page_index"":0,""viewing_time"":13135},{""page_index"":1,""viewing_time"":1504}]","14640","instructions","14","135561","0.0-3.0-11.0","","","","","","","","","","","","",""
"","3658","same-different-html-trial","15","145234","0.0-3.0-12.0","","9597-3","""hesitant""","""mojimoji.wav""","32","hesitant","RI","","","","","","1"
"","727","same-different-html-trial","16","152978","0.0-3.0-13.0","","9597-3","""careful""","""jikkuri.wav""","32","careful","NRI","","","","","","2"
"","9913","same-different-html-trial","17","169903","0.0-3.0-14.0","","9597-3","""rare""","""mare.wav""","32","rare","NAdj","","","","","","3"
"","1688","same-different-html-trial","18","178608","0.0-3.0-15.0","","9597-3","""smooth""","""nopperi.wav""","32","smooth","NRI","","","","","","4"
"","1467","same-different-html-trial","19","188351","0.0-3.0-16.0","","9597-3","""sudden""","""patapata.wav""","32","sudden","RNRI","","","","","","5"
"","1451","same-different-html-trial","20","196817","0.0-3.0-17.0","","9597-3","""messy""","""gochagocha.wav""","32","messy","RI","","","","","","6"
"","667","same-different-html-trial","21","204499","0.0-3.0-18.0","","9597-3","""deficient""","""fubi.wav""","32","deficient","NAdj","","","","","","7"
"","1606","same-different-html-trial","22","213127","0.0-3.0-19.0","","9597-3","""decisive""","""pishapisha.wav""","32","decisive","RNRI","","","","","","8"
"","19333","same-different-html-trial","23","239474","0.0-3.0-20.0","","9597-3","""rash""","""mucha.wav""","32","rash","NAdj","","","","","","9"
"","1751","same-different-html-trial","24","248239","0.0-3.0-21.0","","9597-3","""whispering""","""hiso.wav""","32","whispering","SRI","","","","","","10"
"","616","same-different-html-trial","25","255873","0.0-3.0-22.0","","9597-3","""shivering""","""buruburu.wav""","32","shivering","RI","","","","","","11"
"","1492","same-different-html-trial","26","264385","0.0-3.0-23.0","","9597-3","""suspenseful""","""harahara.wav""","32","suspenseful","RI","","","","","","12"
"","804","same-different-html-trial","27","272208","0.0-3.0-24.0","","9597-3","""happy""","""uki.wav""","32","happy","SRI","","","","","","13"
"","506","same-different-html-trial","28","279728","0.0-3.0-25.0","","9597-3","""fragile""","""yawa.wav""","32","fragile","NAdj","","","","","","14"
"","5322","same-different-html-trial","29","292063","0.0-3.0-26.0","","9597-3","""stiff""","""gowa.wav""","32","stiff","SRI","","","","","","15"
"","1114","same-different-html-trial","30","300193","0.0-3.0-27.0","","9597-3","""chubby""","""buku.wav""","32","chubby","SRI","","","","","","16"
"","3118","same-different-html-trial","31","310336","0.0-3.0-28.0","","9597-3","""free""","""himahima.wav""","32","free","RNAdj","","","","","","17"
"","3770","same-different-html-trial","32","321120","0.0-3.0-29.0","","9597-3","""comfortable""","""rakuraku.wav""","32","comfortable","RNAdj","","","","","","18"
"","2669","same-different-html-trial","33","330802","0.0-3.0-30.0","","9597-3","""supple""","""shinnarishinnari.wav""","32","supple","RNRI","","","","","","19"
"","1880","same-different-html-trial","34","339711","0.0-3.0-31.0","","9597-3","""plump""","""potchari.wav""","32","plump","NRI","","","","","","20"
"","729","same-different-html-trial","35","347456","0.0-3.0-32.0","","9597-3","""stupid""","""bakabaka.wav""","32","stupid","RNAdj","","","","","","21"
"","2664","same-different-html-trial","36","357136","0.0-3.0-33.0","","9597-3","""subdued""","""jimijimi.wav""","32","subdued","RNAdj","","","","","","22"
"","1223","same-different-html-trial","37","365375","0.0-3.0-34.0","","9597-3","""offended""","""kachinkachin.wav""","32","offended","RNRI","","","","","","23"
"","2360","same-different-html-trial","38","374769","0.0-3.0-35.0","","9597-3","""sullen""","""musu.wav""","32","sullen","NRI","","","","","","24"
"","2953","same-different-html-trial","39","384735","0.0-3.0-36.0","","9597-3","""subdued""","""jimijimi.wav""","32","subdued","RNAdj","","","","","","25"
"","1494","same-different-html-trial","40","393248","0.0-3.0-37.0","","9597-3","""sullen""","""musu.wav""","32","sullen","NRI","","","","","","26"
"","618","same-different-html-trial","41","400882","0.0-3.0-38.0","","9597-3","""plump""","""potchari.wav""","32","plump","NRI","","","","","","27"
"","866","same-different-html-trial","42","408767","0.0-3.0-39.0","","9597-3","""deficient""","""fubi.wav""","32","deficient","NAdj","","","","","","28"
"","1412","same-different-html-trial","43","417199","0.0-3.0-40.0","","9597-3","""rash""","""mucha.wav""","32","rash","NAdj","","","","","","29"
"","1404","same-different-html-trial","44","425616","0.0-3.0-41.0","","9597-3","""careful""","""jikkuri.wav""","32","careful","NRI","","","","","","30"
"","1674","same-different-html-trial","45","434305","0.0-3.0-42.0","","9597-3","""suspenseful""","""harahara.wav""","32","suspenseful","RI","","","","","","31"
"","1180","same-different-html-trial","46","443669","0.0-3.0-43.0","","9597-3","""sudden""","""patapata.wav""","32","sudden","RNRI","","","","","","32"
"","87658","same-different-html-trial","47","538337","0.0-3.0-44.0","","9597-3","""rare""","""mare.wav""","32","rare","NAdj","","","","","","33"
"","393","same-different-html-trial","48","545753","0.0-3.0-45.0","","9597-3","""comfortable""","""rakuraku.wav""","32","comfortable","RNAdj","","","","","","34"
"","1137","same-different-html-trial","49","553903","0.0-3.0-46.0","","9597-3","""whispering""","""hiso.wav""","32","whispering","SRI","","","","","","35"
"","1049","same-different-html-trial","50","561972","0.0-3.0-47.0","","9597-3","""supple""","""shinnarishinnari.wav""","32","supple","RNRI","","","","","","36"
"","1428","same-different-html-trial","51","570417","0.0-3.0-48.0","","9597-3","""stupid""","""bakabaka.wav""","32","stupid","RNAdj","","","","","","37"
"","2541","same-different-html-trial","52","579970","0.0-3.0-49.0","","9597-3","""fragile""","""yawa.wav""","32","fragile","NAdj","","","","","","38"
"","20217","same-different-html-trial","53","607519","0.0-3.0-50.0","","9597-3","""chubby""","""buku.wav""","32","chubby","SRI","","","","","","39"
"","16298","same-different-html-trial","54","631615","0.0-3.0-51.0","","9597-3","""shivering""","""buruburu.wav""","32","shivering","RI","","","","","","40"
"","14557","same-different-html-trial","55","656847","0.0-3.0-52.0","","9597-3","""offended""","""kachinkachin.wav""","32","offended","RNRI","","","","","","41"
"","2663","same-different-html-trial","56","666531","0.0-3.0-53.0","","9597-3","""messy""","""gochagocha.wav""","32","messy","RI","","","","","","42"
"","23246","same-different-html-trial","57","698545","0.0-3.0-54.0","","9597-3","""hesitant""","""mojimoji.wav""","32","hesitant","RI","","","","","","43"
"","1268","same-different-html-trial","58","708560","0.0-3.0-55.0","","9597-3","""stiff""","""gowa.wav""","32","stiff","SRI","","","","","","44"
"","23760","same-different-html-trial","59","741057","0.0-3.0-56.0","","9597-3","""smooth""","""nopperi.wav""","32","smooth","NRI","","","","","","45"
"","33842","same-different-html-trial","60","782145","0.0-3.0-57.0","","9597-3","""decisive""","""pishapisha.wav""","32","decisive","RNRI","","","","","","46"
"","609","same-different-html-trial","61","789764","0.0-3.0-58.0","","9597-3","""free""","""himahima.wav""","32","free","RNAdj","","","","","","47"
"","16991","same-different-html-trial","62","815298","0.0-3.0-59.0","","9597-3","""happy""","""uki.wav""","32","happy","SRI","","","","","","48"
"[{""page_index"":0,""viewing_time"":3776}]","3777","instructions","63","820074","0.0-3.0-60.0","","","","","","","","","","","","",""
"","4483","same-different-html","64","826564","0.0-3.0-61.0","","9597-3","""smooth""","""nopperi.wav""","90","smooth","NRI","same","0","T","smooth","Y","1"
"","6448","same-different-html","65","838737","0.0-3.0-62.0","","9597-3","""shivering""","""uki.wav""","90","happy","SRI","different","1","D","shivering","Y","2"
"","3218","same-different-html","66","844961","0.0-3.0-63.0","","9597-3","""deficient""","""pishapisha.wav""","90","decisive","RNRI","different","1","D","deficient","Y","3"
"","3219","same-different-html","67","851186","0.0-3.0-64.0","","9597-3","""comfortable""","""rakuraku.wav""","90","comfortable","RNAdj","same","0","T","comfortable","Y","4"
"","2178","same-different-html","68","856373","0.0-3.0-65.0","","9597-3","""rash""","""mucha.wav""","90","rash","NAdj","same","0","T","rash","Y","5"
"","2962","same-different-html","69","862352","0.0-3.0-66.0","","9597-3","""offended""","""himahima.wav""","90","free","RNAdj","different","1","D","offended","Y","6"
"","3010","same-different-html","70","868369","0.0-3.0-67.0","","9597-3","""fragile""","""hiso.wav""","90","whispering","SRI","different","1","D","fragile","Y","7"
"","3123","same-different-html","71","874495","0.0-3.0-68.0","","9597-3","""messy""","""gowa.wav""","90","stiff","SRI","different","1","D","messy","Y","8"
"","5443","same-different-html","72","882945","0.0-3.0-69.0","","9597-3","""supple""","""shinnarishinnari.wav""","90","supple","RNRI","same","0","T","supple","Y","9"
"","3935","same-different-html","73","889888","0.0-3.0-70.0","","9597-3","""suspenseful""","""harahara.wav""","90","suspenseful","RI","same","0","T","suspenseful","Y","10"
"","3234","same-different-html","74","896128","0.0-3.0-71.0","","9597-3","""suspenseful""","""gochagocha.wav""","90","messy","RI","different","1","D","suspenseful","Y","11"
"","5648","same-different-html","75","904785","0.0-3.0-72.0","","9597-3","""decisive""","""pishapisha.wav""","90","decisive","RNRI","same","0","T","decisive","Y","12"
"","4089","same-different-html","76","911888","0.0-3.0-73.0","","9597-3","""stiff""","""gowa.wav""","90","stiff","SRI","same","0","T","stiff","Y","13"
"","4961","same-different-html","77","919857","0.0-3.0-74.0","","9597-3","""happy""","""buruburu.wav""","90","shivering","RI","different","1","D","happy","Y","14"
"","5024","same-different-html","78","927894","0.0-3.0-75.0","","9597-3","""stupid""","""bakabaka.wav""","90","stupid","RNAdj","same","0","T","stupid","Y","15"
"","3815","same-different-html","79","934720","0.0-3.0-76.0","","9597-3","""subdued""","""jimijimi.wav""","90","subdued","RNAdj","same","0","T","subdued","Y","16"
"","3262","same-different-html","80","940993","0.0-3.0-77.0","","9597-3","""free""","""rakuraku.wav""","90","comfortable","RNAdj","different","1","D","free","Y","17"
"","3937","same-different-html","81","947939","0.0-3.0-78.0","","9597-3","""sudden""","""patapata.wav""","191","sudden","RNRI","same","1","T","sudden","Y","18"
"","3655","same-different-html","82","954607","0.0-3.0-79.0","","9597-3","""subdued""","""mucha.wav""","191","rash","NAdj","different","0","D","subdued","Y","19"
"","3859","same-different-html","83","961471","0.0-3.0-80.0","","9597-3","""smooth""","""harahara.wav""","90","suspenseful","RI","different","1","D","smooth","Y","20"
"","3288","same-different-html","84","967766","0.0-3.0-81.0","","9597-3","""rare""","""musu.wav""","90","sullen","NRI","different","1","D","rare","Y","21"
"","4580","same-different-html","85","975360","0.0-3.0-82.0","","9597-3","""plump""","""jikkuri.wav""","90","careful","NRI","different","1","D","plump","Y","22"
"","2994","same-different-html","86","981362","0.0-3.0-83.0","","9597-3","""deficient""","""fubi.wav""","90","deficient","NAdj","same","0","T","deficient","Y","23"
"","2061","same-different-html","87","986432","0.0-3.0-84.0","","9597-3","""careful""","""jimijimi.wav""","90","subdued","RNAdj","different","1","D","careful","Y","24"
"","3394","same-different-html","88","992834","0.0-3.0-85.0","","9597-3","""shivering""","""buruburu.wav""","191","shivering","RI","same","1","T","shivering","Y","25"
"","5069","same-different-html","89","1000912","0.0-3.0-86.0","","9597-3","""rare""","""mare.wav""","191","rare","NAdj","same","1","T","rare","Y","26"
"","1410","same-different-html","90","1005330","0.0-3.0-87.0","","9597-3","""hesitant""","""potchari.wav""","191","plump","NRI","different","0","D","hesitant","Y","27"
"","1915","same-different-html","91","1010255","0.0-3.0-88.0","","9597-3","""plump""","""potchari.wav""","191","plump","NRI","same","1","T","plump","Y","28"
"","1359","same-different-html","92","1014625","0.0-3.0-89.0","","9597-3","""sullen""","""musu.wav""","191","sullen","NRI","same","1","T","sullen","Y","29"
"","1050","same-different-html","93","1018689","0.0-3.0-90.0","","9597-3","""stiff""","""nopperi.wav""","90","smooth","NRI","different","1","D","stiff","Y","30"
"","2045","same-different-html","94","1023744","0.0-3.0-91.0","","9597-3","""messy""","""gochagocha.wav""","191","messy","RI","same","1","T","messy","Y","31"
"","3423","same-different-html","95","1030177","0.0-3.0-92.0","","9597-3","""rash""","""kachinkachin.wav""","90","offended","RNRI","different","1","D","rash","Y","32"
"","1344","same-different-html","96","1034527","0.0-3.0-93.0","","9597-3","""comfortable""","""bakabaka.wav""","191","stupid","RNAdj","different","0","D","comfortable","Y","33"
"","3951","same-different-html","97","1041488","0.0-3.0-94.0","","9597-3","""supple""","""fubi.wav""","191","deficient","NAdj","different","0","D","supple","Y","34"
"","3423","same-different-html","98","1047921","0.0-3.0-95.0","","9597-3","""stupid""","""buku.wav""","191","chubby","SRI","different","0","D","stupid","Y","35"
"","1870","same-different-html","99","1052801","0.0-3.0-96.0","","9597-3","""chubby""","""shinnarishinnari.wav""","191","supple","RNRI","different","0","D","chubby","Y","36"
"","1470","same-different-html","100","1057280","0.0-3.0-97.0","","9597-3","""whispering""","""mare.wav""","191","rare","NAdj","different","0","D","whispering","Y","37"
"","4246","same-different-html","101","1064529","0.0-3.0-98.0","","9597-3","""chubby""","""buku.wav""","191","chubby","SRI","same","1","T","chubby","Y","38"
"","859","same-different-html","102","1068401","0.0-3.0-99.0","","9597-3","""hesitant""","""mojimoji.wav""","191","hesitant","RI","same","1","T","hesitant","Y","39"
"","1426","same-different-html","103","1072833","0.0-3.0-100.0","","9597-3","""offended""","""kachinkachin.wav""","191","offended","RNRI","same","1","T","offended","Y","40"
"","2577","same-different-html","104","1078417","0.0-3.0-101.0","","9597-3","""free""","""himahima.wav""","191","free","RNAdj","same","1","T","free","Y","41"
"","1358","same-different-html","105","1082785","0.0-3.0-102.0","","9597-3","""whispering""","""hiso.wav""","191","whispering","SRI","same","1","T","whispering","Y","42"
"","2544","same-different-html","106","1088336","0.0-3.0-103.0","","9597-3","""sullen""","""mojimoji.wav""","191","hesitant","RI","different","0","D","sullen","Y","43"
"","1132","same-different-html","107","1092482","0.0-3.0-104.0","","9597-3","""decisive""","""patapata.wav""","191","sudden","RNRI","different","0","D","decisive","Y","44"
"","2014","same-different-html","108","1097505","0.0-3.0-105.0","","9597-3","""careful""","""jikkuri.wav""","191","careful","NRI","same","1","T","careful","Y","45"
"","1506","same-different-html","109","1102018","0.0-3.0-106.0","","9597-3","""sudden""","""yawa.wav""","191","fragile","NAdj","different","0","D","sudden","Y","46"
"","3039","same-different-html","110","1108066","0.0-3.0-107.0","","9597-3","""happy""","""uki.wav""","191","happy","SRI","same","1","T","happy","Y","47"
"","1159","same-different-html","111","1112240","0.0-3.0-108.0","","9597-3","""fragile""","""yawa.wav""","191","fragile","NAdj","same","1","T","fragile","Y","48"
"[{""page_index"":0,""viewing_time"":10984}]","10984","instructions","112","1124226","0.0-3.0-109.0","","","","","","","","","","","","",""
