"view_history","rt","trial_type","trial_index","time_elapsed","internal_node_id","responses","Id","word","sound","key_press","TrueMeaning","WordType","answer","correct","TrialType","TargetMeaning","LegalTrial","trialNum"
"[{""page_index"":0,""viewing_time"":203396}]","203397","instructions","0","203398","0.0-0.0","","","","","","","","","","","","",""
"[{""page_index"":0,""viewing_time"":1635},{""page_index"":1,""viewing_time"":3095},{""page_index"":2,""viewing_time"":4593},{""page_index"":3,""viewing_time"":14615},{""page_index"":4,""viewing_time"":53537}]","77476","instructions","1","280876","0.0-1.0","","","","","","","","","","","","",""
"","19435","survey-multi-choice","2","300316","0.0-2.0","{""Q0"":""Yes"",""Q1"":""Yes"",""Q2"":""Yes"",""Q3"":""Yes"",""Q4"":""Yes""}","","","","","","","","","","","",""
"[{""page_index"":0,""viewing_time"":1442},{""page_index"":1,""viewing_time"":3356}]","4799","instructions","3","305116","0.0-3.0-0.0","","","","","","","","","","","","",""
"","10168","same-different-html-trial","4","321307","0.0-3.0-1.0","","0","""sushi""","""prc_sushi.wav""","32","","","","","","","",""
"[{""page_index"":0,""viewing_time"":31141}]","31141","instructions","5","353449","0.0-3.0-2.0","","","","","","","","","","","","",""
"","26806","same-different-html","6","382263","0.0-3.0-3.0","","0","""sushi""","""prc_sushi.wav""","191","","","same","1","","","0",""
"[{""page_index"":0,""viewing_time"":3181}]","3183","instructions","7","386448","0.0-3.0-4.0","","","","","","","","","","","","",""
"","6939","same-different-html","8","395392","0.0-3.0-5.0","","0","""cat""","""prc_sushi.wav""","90","","","different","1","","","0",""
"[{""page_index"":0,""viewing_time"":4135},{""page_index"":1,""viewing_time"":1865}]","6001","instructions","9","402393","0.0-3.0-6.0","","","","","","","","","","","","",""
"","2044","same-different-html-trial","10","410441","0.0-3.0-7.0","","0","""thank you""","""prc_arigato.wav""","32","","","","","","","",""
"[{""page_index"":0,""viewing_time"":3749}]","3749","instructions","11","415190","0.0-3.0-8.0","","","","","","","","","","","","",""
"","6784","same-different-html","12","423982","0.0-3.0-9.0","","0","""thank you""","""prc_arigato.wav""","191","","","same","1","","","0",""
"","3843","same-different-html","13","430834","0.0-3.0-10.0","","0","""cat""","""prc_arigato.wav""","90","","","different","1","","","0",""
"[{""page_index"":0,""viewing_time"":1870},{""page_index"":1,""viewing_time"":21709}]","23580","instructions","14","455415","0.0-3.0-11.0","","","","","","","","","","","","",""
"","2604","same-different-html-trial","15","464028","0.0-3.0-12.0","","5431-5","""tasteless""","""yabo.wav""","32","tasteless","NAdj","","","","","","1"
"","6556","same-different-html-trial","16","477638","0.0-3.0-13.0","","5431-5","""messy""","""gocha.wav""","32","messy","SRI","","","","","","2"
"","6138","same-different-html-trial","17","490789","0.0-3.0-14.0","","5431-5","""disadvantaged""","""furi.wav""","32","disadvantaged","NAdj","","","","","","3"
"","4294","same-different-html-trial","18","502097","0.0-3.0-15.0","","5431-5","""suspenseful""","""hara.wav""","32","suspenseful","SRI","","","","","","4"
"","4325","same-different-html-trial","19","513436","0.0-3.0-16.0","","5431-5","""vulgar""","""zoku.wav""","32","vulgar","NAdj","","","","","","5"
"","5852","same-different-html-trial","20","526301","0.0-3.0-17.0","","5431-5","""humid""","""mushimushi.wav""","32","humid","RI","","","","","","6"
"","4091","same-different-html-trial","21","537406","0.0-3.0-18.0","","5431-5","""subdued""","""jimi.wav""","32","subdued","NAdj","","","","","","7"
"","4257","same-different-html-trial","22","548671","0.0-3.0-19.0","","5431-5","""fat""","""debudebu.wav""","32","fat","RI","","","","","","8"
"","1597","same-different-html-trial","23","557950","0.0-3.0-20.0","","5431-5","""nonchalantly""","""kerokero.wav""","32","nonchalantly","RNRI","","","","","","9"
"","1535","same-different-html-trial","24","566496","0.0-3.0-21.0","","5431-5","""gaudy""","""kabikabi.wav""","32","gaudy","RNAdj","","","","","","10"
"","654","same-different-html-trial","25","574164","0.0-3.0-22.0","","5431-5","""beneficial""","""tokutoku.wav""","32","beneficial","RNAdj","","","","","","11"
"","1434","same-different-html-trial","26","582614","0.0-3.0-23.0","","5431-5","""decisive""","""pisha.wav""","32","decisive","NRI","","","","","","12"
"","1615","same-different-html-trial","27","591247","0.0-3.0-24.0","","5431-5","""rash""","""muchamucha.wav""","32","rash","RNAdj","","","","","","13"
"","3406","same-different-html-trial","28","602755","0.0-3.0-25.0","","5431-5","""impossible""","""murimuri.wav""","32","impossible","RNAdj","","","","","","14"
"","1311","same-different-html-trial","29","611075","0.0-3.0-26.0","","5431-5","""worn out""","""boroboro.wav""","32","worn out","RI","","","","","","15"
"","1069","same-different-html-trial","30","620425","0.0-3.0-27.0","","5431-5","""glossy""","""tsuya.wav""","32","glossy","SRI","","","","","","16"
"","13041","same-different-html-trial","31","642394","0.0-3.0-28.0","","5431-5","""clear""","""kukkiri.wav""","32","clear","NRI","","","","","","17"
"","1959","same-different-html-trial","32","651363","0.0-3.0-29.0","","5431-5","""smooth""","""nopperinopperi.wav""","32","smooth","RNRI","","","","","","18"
"","203","same-different-html-trial","33","661798","0.0-3.0-30.0","","5431-5","""energetic""","""kibikibi.wav""","32","energetic","RI","","","","","","19"
"","2195","same-different-html-trial","34","671004","0.0-3.0-31.0","","5431-5","""offended""","""kachin.wav""","32","offended","NRI","","","","","","20"
"","8128","same-different-html-trial","35","689477","0.0-3.0-32.0","","5431-5","""to change ocmpletely""","""gara.wav""","32","to change ocmpletely","NRI","","","","","","21"
"","1173","same-different-html-trial","36","697663","0.0-3.0-33.0","","5431-5","""gaping""","""pokapoka.wav""","32","gaping","RNRI","","","","","","22"
"","3511","same-different-html-trial","37","709863","0.0-3.0-34.0","","5431-5","""rude""","""zuke.wav""","32","rude","SRI","","","","","","23"
"","3262","same-different-html-trial","38","720629","0.0-3.0-35.0","","5431-5","""sturdy""","""gashigashi.wav""","32","sturdy","RNRI","","","","","","24"
"","486","same-different-html-trial","39","728125","0.0-3.0-36.0","","5431-5","""clear""","""kukkiri.wav""","32","clear","NRI","","","","","","25"
"","2405","same-different-html-trial","40","737761","0.0-3.0-37.0","","5431-5","""impossible""","""murimuri.wav""","32","impossible","RNAdj","","","","","","26"
"","591","same-different-html-trial","41","746717","0.0-3.0-38.0","","5431-5","""rash""","""muchamucha.wav""","32","rash","RNAdj","","","","","","27"
"","465","same-different-html-trial","42","756820","0.0-3.0-39.0","","5431-5","""gaudy""","""kabikabi.wav""","32","gaudy","RNAdj","","","","","","28"
"","1337","same-different-html-trial","43","765171","0.0-3.0-40.0","","5431-5","""rude""","""zuke.wav""","32","rude","SRI","","","","","","29"
"","1314","same-different-html-trial","44","773495","0.0-3.0-41.0","","5431-5","""humid""","""mushimushi.wav""","32","humid","RI","","","","","","30"
"","9030","same-different-html-trial","45","791398","0.0-3.0-42.0","","5431-5","""tasteless""","""yabo.wav""","32","tasteless","NAdj","","","","","","31"
"","258","same-different-html-trial","46","798990","0.0-3.0-43.0","","5431-5","""messy""","""gocha.wav""","32","messy","SRI","","","","","","32"
"","1230","same-different-html-trial","47","807231","0.0-3.0-44.0","","5431-5","""fat""","""debudebu.wav""","32","fat","RI","","","","","","33"
"","5284","same-different-html-trial","48","819526","0.0-3.0-45.0","","5431-5","""worn out""","""boroboro.wav""","32","worn out","RI","","","","","","34"
"","472","same-different-html-trial","49","827013","0.0-3.0-46.0","","5431-5","""subdued""","""jimi.wav""","32","subdued","NAdj","","","","","","35"
"","26749","same-different-html-trial","50","860774","0.0-3.0-47.0","","5431-5","""to change ocmpletely""","""gara.wav""","32","to change ocmpletely","NRI","","","","","","36"
"","8378","same-different-html-trial","51","878649","0.0-3.0-48.0","","5431-5","""nonchalantly""","""kerokero.wav""","32","nonchalantly","RNRI","","","","","","37"
"","2097","same-different-html-trial","52","892932","0.0-3.0-49.0","","5431-5","""disadvantaged""","""furi.wav""","32","disadvantaged","NAdj","","","","","","38"
"","3436","same-different-html-trial","53","903379","0.0-3.0-50.0","","5431-5","""decisive""","""pisha.wav""","32","decisive","NRI","","","","","","39"
"","18447","same-different-html-trial","54","928835","0.0-3.0-51.0","","5431-5","""glossy""","""tsuya.wav""","32","glossy","SRI","","","","","","40"
"","1829","same-different-html-trial","55","937673","0.0-3.0-52.0","","5431-5","""gaping""","""pokapoka.wav""","32","gaping","RNRI","","","","","","41"
"","441","same-different-html-trial","56","945124","0.0-3.0-53.0","","5431-5","""sturdy""","""gashigashi.wav""","32","sturdy","RNRI","","","","","","42"
"","10154","same-different-html-trial","57","964508","0.0-3.0-54.0","","5431-5","""smooth""","""nopperinopperi.wav""","32","smooth","RNRI","","","","","","43"
"","583","same-different-html-trial","58","972101","0.0-3.0-55.0","","5431-5","""suspenseful""","""hara.wav""","32","suspenseful","SRI","","","","","","44"
"","1089","same-different-html-trial","59","980202","0.0-3.0-56.0","","5431-5","""energetic""","""kibikibi.wav""","32","energetic","RI","","","","","","45"
"","379","same-different-html-trial","60","987594","0.0-3.0-57.0","","5431-5","""offended""","""kachin.wav""","32","offended","NRI","","","","","","46"
"","1922","same-different-html-trial","61","996528","0.0-3.0-58.0","","5431-5","""beneficial""","""tokutoku.wav""","32","beneficial","RNAdj","","","","","","47"
"","2918","same-different-html-trial","62","1006458","0.0-3.0-59.0","","5431-5","""vulgar""","""zoku.wav""","32","vulgar","NAdj","","","","","","48"
"[{""page_index"":0,""viewing_time"":34525}]","34525","instructions","63","1041983","0.0-3.0-60.0","","","","","","","","","","","","",""
"","6145","same-different-html","64","1050134","0.0-3.0-61.0","","5431-5","""rash""","""zoku.wav""","90","vulgar","NAdj","different","1","D","rash","Y","1"
"","2906","same-different-html","65","1056045","0.0-3.0-62.0","","5431-5","""humid""","""boroboro.wav""","90","worn out","RI","different","1","D","humid","Y","2"
"","2286","same-different-html","66","1061338","0.0-3.0-63.0","","5431-5","""tasteless""","""pokapoka.wav""","191","gaping","RNRI","different","0","D","tasteless","Y","3"
"","2938","same-different-html","67","1067301","0.0-3.0-64.0","","5431-5","""offended""","""kachin.wav""","191","offended","NRI","same","1","T","offended","Y","4"
"","1837","same-different-html","68","1072143","0.0-3.0-65.0","","5431-5","""messy""","""nopperinopperi.wav""","90","smooth","RNRI","different","1","D","messy","Y","5"
"","2770","same-different-html","69","1077921","0.0-3.0-66.0","","5431-5","""impossible""","""kachin.wav""","90","offended","NRI","different","1","D","impossible","Y","6"
"","2341","same-different-html","70","1083268","0.0-3.0-67.0","","5431-5","""smooth""","""nopperinopperi.wav""","191","smooth","RNRI","same","1","T","smooth","Y","7"
"","1315","same-different-html","71","1087619","0.0-3.0-68.0","","5431-5","""sturdy""","""gashigashi.wav""","90","sturdy","RNRI","same","0","T","sturdy","Y","8"
"","2332","same-different-html","72","1093348","0.0-3.0-69.0","","5431-5","""rude""","""zuke.wav""","191","rude","SRI","same","1","T","rude","Y","9"
"","1534","same-different-html","73","1097894","0.0-3.0-70.0","","5431-5","""glossy""","""tsuya.wav""","90","glossy","SRI","same","0","T","glossy","Y","10"
"","3355","same-different-html","74","1104257","0.0-3.0-71.0","","5431-5","""clear""","""kukkiri.wav""","191","clear","NRI","same","1","T","clear","Y","11"
"","1980","same-different-html","75","1109244","0.0-3.0-72.0","","5431-5","""smooth""","""kerokero.wav""","90","nonchalantly","RNRI","different","1","D","smooth","Y","12"
"","1473","same-different-html","76","1113724","0.0-3.0-73.0","","5431-5","""decisive""","""pisha.wav""","191","decisive","NRI","same","1","T","decisive","Y","13"
"","2808","same-different-html","77","1119536","0.0-3.0-74.0","","5431-5","""to change ocmpletely""","""pisha.wav""","90","decisive","NRI","different","1","D","to change ocmpletely","Y","14"
"","1478","same-different-html","78","1124022","0.0-3.0-75.0","","5431-5","""disadvantaged""","""furi.wav""","191","disadvantaged","NAdj","same","1","T","disadvantaged","Y","15"
"","1804","same-different-html","79","1128834","0.0-3.0-76.0","","5431-5","""humid""","""mushimushi.wav""","191","humid","RI","same","1","T","humid","Y","16"
"","1756","same-different-html","80","1133595","0.0-3.0-77.0","","5431-5","""gaping""","""pokapoka.wav""","90","gaping","RNRI","same","0","T","gaping","Y","17"
"","1410","same-different-html","81","1138012","0.0-3.0-78.0","","5431-5","""rash""","""muchamucha.wav""","90","rash","RNAdj","same","0","T","rash","Y","18"
"","2034","same-different-html","82","1143060","0.0-3.0-79.0","","5431-5","""worn out""","""boroboro.wav""","191","worn out","RI","same","1","T","worn out","Y","19"
"","2757","same-different-html","83","1148823","0.0-3.0-80.0","","5431-5","""offended""","""muchamucha.wav""","191","rash","RNAdj","different","0","D","offended","Y","20"
"","1976","same-different-html","84","1153806","0.0-3.0-81.0","","5431-5","""impossible""","""murimuri.wav""","90","impossible","RNAdj","same","0","T","impossible","Y","21"
"","2908","same-different-html","85","1159721","0.0-3.0-82.0","","5431-5","""suspenseful""","""hara.wav""","90","suspenseful","SRI","same","0","T","suspenseful","Y","22"
"","1554","same-different-html","86","1164284","0.0-3.0-83.0","","5431-5","""beneficial""","""tokutoku.wav""","191","beneficial","RNAdj","same","1","T","beneficial","Y","23"
"","2214","same-different-html","87","1169504","0.0-3.0-84.0","","5431-5","""vulgar""","""zoku.wav""","90","vulgar","NAdj","same","0","T","vulgar","Y","24"
"","1149","same-different-html","88","1173660","0.0-3.0-85.0","","5431-5","""gaudy""","""kabikabi.wav""","191","gaudy","RNAdj","same","1","T","gaudy","Y","25"
"","1233","same-different-html","89","1177902","0.0-3.0-86.0","","5431-5","""clear""","""debudebu.wav""","191","fat","RI","different","0","D","clear","Y","26"
"","1894","same-different-html","90","1182802","0.0-3.0-87.0","","5431-5","""gaping""","""hara.wav""","90","suspenseful","SRI","different","1","D","gaping","Y","27"
"","1799","same-different-html","91","1187606","0.0-3.0-88.0","","5431-5","""energetic""","""kibikibi.wav""","191","energetic","RI","same","1","T","energetic","Y","28"
"","1958","same-different-html","92","1192572","0.0-3.0-89.0","","5431-5","""energetic""","""tokutoku.wav""","191","beneficial","RNAdj","different","0","D","energetic","Y","29"
"","3478","same-different-html","93","1199056","0.0-3.0-90.0","","5431-5","""vulgar""","""furi.wav""","90","disadvantaged","NAdj","different","1","D","vulgar","Y","30"
"","2911","same-different-html","94","1204974","0.0-3.0-91.0","","5431-5","""suspenseful""","""tsuya.wav""","191","glossy","SRI","different","0","D","suspenseful","Y","31"
"","942","same-different-html","95","1208922","0.0-3.0-92.0","","5431-5","""subdued""","""gara.wav""","90","to change ocmpletely","NRI","different","1","D","subdued","Y","32"
"","2852","same-different-html","96","1214781","0.0-3.0-93.0","","5431-5","""glossy""","""zuke.wav""","191","rude","SRI","different","0","D","glossy","Y","33"
"","1845","same-different-html","97","1219631","0.0-3.0-94.0","","5431-5","""to change ocmpletely""","""gara.wav""","90","to change ocmpletely","NRI","same","0","T","to change ocmpletely","Y","34"
"","3806","same-different-html","98","1226439","0.0-3.0-95.0","","5431-5","""nonchalantly""","""kerokero.wav""","191","nonchalantly","RNRI","same","1","T","nonchalantly","Y","35"
"","3065","same-different-html","99","1232508","0.0-3.0-96.0","","5431-5","""worn out""","""kabikabi.wav""","90","gaudy","RNAdj","different","1","D","worn out","Y","36"
"","2329","same-different-html","100","1237845","0.0-3.0-97.0","","5431-5","""rude""","""murimuri.wav""","191","impossible","RNAdj","different","0","D","rude","Y","37"
"","2959","same-different-html","101","1243808","0.0-3.0-98.0","","5431-5","""gaudy""","""yabo.wav""","90","tasteless","NAdj","different","1","D","gaudy","Y","38"
"","3093","same-different-html","102","1249906","0.0-3.0-99.0","","5431-5","""disadvantaged""","""gocha.wav""","191","messy","SRI","different","0","D","disadvantaged","Y","39"
"","4047","same-different-html","103","1256957","0.0-3.0-100.0","","5431-5","""fat""","""kukkiri.wav""","90","clear","NRI","different","1","D","fat","Y","40"
"","2778","same-different-html","104","1262746","0.0-3.0-101.0","","5431-5","""fat""","""debudebu.wav""","191","fat","RI","same","1","T","fat","Y","41"
"","1491","same-different-html","105","1267245","0.0-3.0-102.0","","5431-5","""subdued""","""jimi.wav""","90","subdued","NAdj","same","0","T","subdued","Y","42"
"","4914","same-different-html","106","1275167","0.0-3.0-103.0","","5431-5","""beneficial""","""mushimushi.wav""","191","humid","RI","different","0","D","beneficial","Y","43"
"","1510","same-different-html","107","1279685","0.0-3.0-104.0","","5431-5","""nonchalantly""","""gashigashi.wav""","90","sturdy","RNRI","different","1","D","nonchalantly","Y","44"
"","4187","same-different-html","108","1286900","0.0-3.0-105.0","","5431-5","""tasteless""","""yabo.wav""","191","tasteless","NAdj","same","1","T","tasteless","Y","45"
"","42","same-different-html","109","1289950","0.0-3.0-106.0","","5431-5","""sturdy""","""kibikibi.wav""","90","energetic","RI","different","1","D","sturdy","Y","46"
"","1384","same-different-html","110","1294339","0.0-3.0-107.0","","5431-5","""decisive""","""jimi.wav""","90","subdued","NAdj","different","1","D","decisive","Y","47"
"","2885","same-different-html","111","1300231","0.0-3.0-108.0","","5431-5","""messy""","""gocha.wav""","90","messy","SRI","same","0","T","messy","Y","48"
"[{""page_index"":0,""viewing_time"":49547}]","49547","instructions","112","1350778","0.0-3.0-109.0","","","","","","","","","","","","",""
