"view_history","rt","trial_type","trial_index","time_elapsed","internal_node_id","responses","Id","word","sound","key_press","TrueMeaning","WordType","answer","correct","TrialType","TargetMeaning","LegalTrial","trialNum"
"[{""page_index"":0,""viewing_time"":110420}]","110421","instructions","0","110423","0.0-0.0","","","","","","","","","","","","",""
"[{""page_index"":0,""viewing_time"":1189},{""page_index"":1,""viewing_time"":116528},{""page_index"":2,""viewing_time"":1064},{""page_index"":3,""viewing_time"":3279},{""page_index"":4,""viewing_time"":1241}]","123301","instructions","1","233726","0.0-1.0","","","","","","","","","","","","",""
"","13861","survey-multi-choice","2","247590","0.0-2.0","{""Q0"":""Yes"",""Q1"":""Yes"",""Q2"":""Yes"",""Q3"":""Yes"",""Q4"":""Yes""}","","","","","","","","","","","",""
"[{""page_index"":0,""viewing_time"":1039},{""page_index"":1,""viewing_time"":1361}]","2400","instructions","3","249990","0.0-3.0-0.0","","","","","","","","","","","","",""
"","2182","same-different-html-trial","4","258190","0.0-3.0-1.0","","0","""sushi""","""prc_sushi.wav""","32","","","","","","","",""
"[{""page_index"":0,""viewing_time"":1983}]","1983","instructions","5","261173","0.0-3.0-2.0","","","","","","","","","","","","",""
"","7834","same-different-html","6","271010","0.0-3.0-3.0","","0","""sushi""","""prc_sushi.wav""","191","","","same","1","","","0",""
"[{""page_index"":0,""viewing_time"":4282}]","4282","instructions","7","276293","0.0-3.0-4.0","","","","","","","","","","","","",""
"","7189","same-different-html","8","285487","0.0-3.0-5.0","","0","""cat""","""prc_sushi.wav""","90","","","different","1","","","0",""
"[{""page_index"":0,""viewing_time"":90302},{""page_index"":1,""viewing_time"":993}]","91295","instructions","9","377783","0.0-3.0-6.0","","","","","","","","","","","","",""
"","1842","same-different-html-trial","10","385630","0.0-3.0-7.0","","0","""thank you""","""prc_arigato.wav""","32","","","","","","","",""
"[{""page_index"":0,""viewing_time"":113869}]","113869","instructions","11","500500","0.0-3.0-8.0","","","","","","","","","","","","",""
"","4121","same-different-html","12","506623","0.0-3.0-9.0","","0","""thank you""","""prc_arigato.wav""","191","","","same","1","","","0",""
"","1619","same-different-html","13","511246","0.0-3.0-10.0","","0","""cat""","""prc_arigato.wav""","90","","","different","1","","","0",""
"[{""page_index"":0,""viewing_time"":1764},{""page_index"":1,""viewing_time"":3600}]","5364","instructions","14","517612","0.0-3.0-11.0","","","","","","","","","","","","",""
"","1325","same-different-html-trial","15","524943","0.0-3.0-12.0","","1598-8","""rash""","""mucha.wav""","32","rash","NAdj","","","","","","1"
"","258","same-different-html-trial","16","532206","0.0-3.0-13.0","","1598-8","""useless""","""damedame.wav""","32","useless","RNAdj","","","","","","2"
"","787","same-different-html-trial","17","540000","0.0-3.0-14.0","","1598-8","""rude""","""zuke.wav""","32","rude","SRI","","","","","","3"
"","1695","same-different-html-trial","18","548703","0.0-3.0-15.0","","1598-8","""careful""","""jikkuri.wav""","32","careful","NRI","","","","","","4"
"","634","same-different-html-trial","19","556526","0.0-3.0-16.0","","1598-8","""stiff""","""gowagowa.wav""","32","stiff","RI","","","","","","5"
"","337","same-different-html-trial","20","563871","0.0-3.0-17.0","","1598-8","""harsh""","""kokukoku.wav""","32","harsh","RNAdj","","","","","","6"
"","1024","same-different-html-trial","21","571903","0.0-3.0-18.0","","1598-8","""chubby""","""bukubuku.wav""","32","chubby","RI","","","","","","7"
"","1697","same-different-html-trial","22","580606","0.0-3.0-19.0","","1598-8","""hasty""","""seka.wav""","32","hasty","SRI","","","","","","8"
"","386","same-different-html-trial","23","587998","0.0-3.0-20.0","","1598-8","""subdued""","""jimijimi.wav""","32","subdued","RNAdj","","","","","","9"
"","670","same-different-html-trial","24","595679","0.0-3.0-21.0","","1598-8","""smooth""","""nopperi.wav""","32","smooth","NRI","","","","","","10"
"","1169","same-different-html-trial","25","603853","0.0-3.0-22.0","","1598-8","""dejected""","""gaku.wav""","32","dejected","NRI","","","","","","11"
"","1806","same-different-html-trial","26","612672","0.0-3.0-23.0","","1598-8","""comfortable""","""raku.wav""","32","comfortable","NAdj","","","","","","12"
"","787","same-different-html-trial","27","620462","0.0-3.0-24.0","","1598-8","""agitated""","""hiku.wav""","32","agitated","SRI","","","","","","13"
"","671","same-different-html-trial","28","628158","0.0-3.0-25.0","","1598-8","""stupid""","""bakabaka.wav""","32","stupid","RNAdj","","","","","","14"
"","625","same-different-html-trial","29","635791","0.0-3.0-26.0","","1598-8","""plump""","""potcharipotchari.wav""","32","plump","RNRI","","","","","","15"
"","707","same-different-html-trial","30","643505","0.0-3.0-27.0","","1598-8","""disadvantaged""","""furi.wav""","32","disadvantaged","NAdj","","","","","","16"
"","3698","same-different-html-trial","31","654206","0.0-3.0-28.0","","1598-8","""perfect""","""batchiribatchiri.wav""","32","perfect","RNRI","","","","","","17"
"","1170","same-different-html-trial","32","662381","0.0-3.0-29.0","","1598-8","""fragile""","""yawa.wav""","32","fragile","NAdj","","","","","","18"
"","554","same-different-html-trial","33","669950","0.0-3.0-30.0","","1598-8","""happy""","""uki.wav""","32","happy","SRI","","","","","","19"
"","531","same-different-html-trial","34","677487","0.0-3.0-31.0","","1598-8","""noisy""","""gayagaya.wav""","32","noisy","RI","","","","","","20"
"","116","same-different-html-trial","35","684606","0.0-3.0-32.0","","1598-8","""sullen""","""musumusu.wav""","32","sullen","RNRI","","","","","","21"
"","419","same-different-html-trial","36","692030","0.0-3.0-33.0","","1598-8","""hesitant""","""mojimoji.wav""","32","hesitant","RI","","","","","","22"
"","1549","same-different-html-trial","37","701567","0.0-3.0-34.0","","1598-8","""gaping""","""poka.wav""","32","gaping","NRI","","","","","","23"
"","880","same-different-html-trial","38","709453","0.0-3.0-35.0","","1598-8","""decisive""","""pishapisha.wav""","32","decisive","RNRI","","","","","","24"
"","272","same-different-html-trial","39","716735","0.0-3.0-36.0","","1598-8","""rash""","""mucha.wav""","32","rash","NAdj","","","","","","25"
"","500","same-different-html-trial","40","724239","0.0-3.0-37.0","","1598-8","""comfortable""","""raku.wav""","32","comfortable","NAdj","","","","","","26"
"","1026","same-different-html-trial","41","732270","0.0-3.0-38.0","","1598-8","""useless""","""damedame.wav""","32","useless","RNAdj","","","","","","27"
"","48","same-different-html-trial","42","739326","0.0-3.0-39.0","","1598-8","""gaping""","""poka.wav""","32","gaping","NRI","","","","","","28"
"","383","same-different-html-trial","43","748671","0.0-3.0-40.0","","1598-8","""perfect""","""batchiribatchiri.wav""","32","perfect","RNRI","","","","","","29"
"","417","same-different-html-trial","44","756095","0.0-3.0-41.0","","1598-8","""chubby""","""bukubuku.wav""","32","chubby","RI","","","","","","30"
"","561","same-different-html-trial","45","763663","0.0-3.0-42.0","","1598-8","""smooth""","""nopperi.wav""","32","smooth","NRI","","","","","","31"
"","354","same-different-html-trial","46","771022","0.0-3.0-43.0","","1598-8","""stupid""","""bakabaka.wav""","32","stupid","RNAdj","","","","","","32"
"","3710","same-different-html-trial","47","781743","0.0-3.0-44.0","","1598-8","""harsh""","""kokukoku.wav""","32","harsh","RNAdj","","","","","","33"
"","492","same-different-html-trial","48","789503","0.0-3.0-45.0","","1598-8","""noisy""","""gayagaya.wav""","32","noisy","RI","","","","","","34"
"","339","same-different-html-trial","49","796847","0.0-3.0-46.0","","1598-8","""disadvantaged""","""furi.wav""","32","disadvantaged","NAdj","","","","","","35"
"","483","same-different-html-trial","50","804333","0.0-3.0-47.0","","1598-8","""stiff""","""gowagowa.wav""","32","stiff","RI","","","","","","36"
"","324","same-different-html-trial","51","811661","0.0-3.0-48.0","","1598-8","""agitated""","""hiku.wav""","32","agitated","SRI","","","","","","37"
"","1315","same-different-html-trial","52","819982","0.0-3.0-49.0","","1598-8","""decisive""","""pishapisha.wav""","32","decisive","RNRI","","","","","","38"
"","339","same-different-html-trial","53","827325","0.0-3.0-50.0","","1598-8","""hesitant""","""mojimoji.wav""","32","hesitant","RI","","","","","","39"
"","514","same-different-html-trial","54","834846","0.0-3.0-51.0","","1598-8","""fragile""","""yawa.wav""","32","fragile","NAdj","","","","","","40"
"","421","same-different-html-trial","55","842269","0.0-3.0-52.0","","1598-8","""rude""","""zuke.wav""","32","rude","SRI","","","","","","41"
"","580","same-different-html-trial","56","849853","0.0-3.0-53.0","","1598-8","""careful""","""jikkuri.wav""","32","careful","NRI","","","","","","42"
"","4532","same-different-html-trial","57","861389","0.0-3.0-54.0","","1598-8","""sullen""","""musumusu.wav""","32","sullen","RNRI","","","","","","43"
"","498","same-different-html-trial","58","868893","0.0-3.0-55.0","","1598-8","""subdued""","""jimijimi.wav""","32","subdued","RNAdj","","","","","","44"
"","4114","same-different-html-trial","59","880014","0.0-3.0-56.0","","1598-8","""plump""","""potcharipotchari.wav""","32","plump","RNRI","","","","","","45"
"","2049","same-different-html-trial","60","889069","0.0-3.0-57.0","","1598-8","""happy""","""uki.wav""","32","happy","SRI","","","","","","46"
"","294","same-different-html-trial","61","896366","0.0-3.0-58.0","","1598-8","""hasty""","""seka.wav""","32","hasty","SRI","","","","","","47"
"","3938","same-different-html-trial","62","907309","0.0-3.0-59.0","","1598-8","""dejected""","""gaku.wav""","32","dejected","NRI","","","","","","48"
"[{""page_index"":0,""viewing_time"":7461}]","7461","instructions","63","915773","0.0-3.0-60.0","","","","","","","","","","","","",""
"","2400","same-different-html","64","920176","0.0-3.0-61.0","","1598-8","""sullen""","""nopperi.wav""","90","smooth","NRI","different","1","D","sullen","Y","1"
"","2164","same-different-html","65","925341","0.0-3.0-62.0","","1598-8","""careful""","""jikkuri.wav""","191","careful","NRI","same","1","T","careful","Y","2"
"","1687","same-different-html","66","930030","0.0-3.0-63.0","","1598-8","""dejected""","""gaku.wav""","90","dejected","NRI","same","0","T","dejected","Y","3"
"","2675","same-different-html","67","935709","0.0-3.0-64.0","","1598-8","""disadvantaged""","""furi.wav""","90","disadvantaged","NAdj","same","0","T","disadvantaged","Y","4"
"","2261","same-different-html","68","940974","0.0-3.0-65.0","","1598-8","""agitated""","""gowagowa.wav""","191","stiff","RI","different","0","D","agitated","Y","5"
"","4482","same-different-html","69","948461","0.0-3.0-66.0","","1598-8","""plump""","""raku.wav""","90","comfortable","NAdj","different","1","D","plump","Y","6"
"","4074","same-different-html","70","956078","0.0-3.0-67.0","","1598-8","""perfect""","""batchiribatchiri.wav""","191","perfect","RNRI","same","1","T","perfect","Y","7"
"","3622","same-different-html","71","962702","0.0-3.0-68.0","","1598-8","""decisive""","""pishapisha.wav""","90","decisive","RNRI","same","0","T","decisive","Y","8"
"","1958","same-different-html","72","967661","0.0-3.0-69.0","","1598-8","""comfortable""","""raku.wav""","191","comfortable","NAdj","same","1","T","comfortable","Y","9"
"","1844","same-different-html","73","972509","0.0-3.0-70.0","","1598-8","""rash""","""poka.wav""","90","gaping","NRI","different","1","D","rash","Y","10"
"","2119","same-different-html","74","977678","0.0-3.0-71.0","","1598-8","""sullen""","""musumusu.wav""","90","sullen","RNRI","same","0","T","sullen","Y","11"
"","2356","same-different-html","75","983037","0.0-3.0-72.0","","1598-8","""disadvantaged""","""pishapisha.wav""","90","decisive","RNRI","different","1","D","disadvantaged","Y","12"
"","2220","same-different-html","76","988861","0.0-3.0-73.0","","1598-8","""hasty""","""seka.wav""","191","hasty","SRI","same","1","T","hasty","Y","13"
"","1764","same-different-html","77","993629","0.0-3.0-74.0","","1598-8","""hesitant""","""mojimoji.wav""","90","hesitant","RI","same","0","T","hesitant","Y","14"
"","4738","same-different-html","78","1001374","0.0-3.0-75.0","","1598-8","""rude""","""mojimoji.wav""","90","hesitant","RI","different","1","D","rude","Y","15"
"","3448","same-different-html","79","1007838","0.0-3.0-76.0","","1598-8","""dejected""","""mucha.wav""","191","rash","NAdj","different","0","D","dejected","Y","16"
"","1461","same-different-html","80","1012302","0.0-3.0-77.0","","1598-8","""useless""","""yawa.wav""","191","fragile","NAdj","different","0","D","useless","Y","17"
"","1814","same-different-html","81","1017119","0.0-3.0-78.0","","1598-8","""perfect""","""musumusu.wav""","90","sullen","RNRI","different","1","D","perfect","Y","18"
"","2003","same-different-html","82","1022125","0.0-3.0-79.0","","1598-8","""gaping""","""hiku.wav""","191","agitated","SRI","different","0","D","gaping","Y","19"
"","1974","same-different-html","83","1027102","0.0-3.0-80.0","","1598-8","""comfortable""","""gaku.wav""","191","dejected","NRI","different","0","D","comfortable","Y","20"
"","1476","same-different-html","84","1031582","0.0-3.0-81.0","","1598-8","""agitated""","""hiku.wav""","90","agitated","SRI","same","0","T","agitated","Y","21"
"","2755","same-different-html","85","1037342","0.0-3.0-82.0","","1598-8","""smooth""","""potcharipotchari.wav""","191","plump","RNRI","different","0","D","smooth","Y","22"
"","1510","same-different-html","86","1041855","0.0-3.0-83.0","","1598-8","""fragile""","""yawa.wav""","90","fragile","NAdj","same","0","T","fragile","Y","23"
"","1508","same-different-html","87","1046366","0.0-3.0-84.0","","1598-8","""stiff""","""gowagowa.wav""","90","stiff","RI","same","0","T","stiff","Y","24"
"","1428","same-different-html","88","1050797","0.0-3.0-85.0","","1598-8","""happy""","""uki.wav""","191","happy","SRI","same","1","T","happy","Y","25"
"","1537","same-different-html","89","1055341","0.0-3.0-86.0","","1598-8","""gaping""","""poka.wav""","191","gaping","NRI","same","1","T","gaping","Y","26"
"","1866","same-different-html","90","1060221","0.0-3.0-87.0","","1598-8","""stupid""","""bakabaka.wav""","90","stupid","RNAdj","same","0","T","stupid","Y","27"
"","2279","same-different-html","91","1065502","0.0-3.0-88.0","","1598-8","""plump""","""potcharipotchari.wav""","90","plump","RNRI","same","0","T","plump","Y","28"
"","2198","same-different-html","92","1070701","0.0-3.0-89.0","","1598-8","""hasty""","""kokukoku.wav""","191","harsh","RNAdj","different","0","D","hasty","Y","29"
"","2117","same-different-html","93","1075821","0.0-3.0-90.0","","1598-8","""useless""","""damedame.wav""","191","useless","RNAdj","same","1","T","useless","Y","30"
"","1733","same-different-html","94","1080558","0.0-3.0-91.0","","1598-8","""noisy""","""gayagaya.wav""","191","noisy","RI","same","1","T","noisy","Y","31"
"","1798","same-different-html","95","1085357","0.0-3.0-92.0","","1598-8","""rash""","""mucha.wav""","191","rash","NAdj","same","1","T","rash","Y","32"
"","1589","same-different-html","96","1089949","0.0-3.0-93.0","","1598-8","""happy""","""jimijimi.wav""","90","subdued","RNAdj","different","1","D","happy","Y","33"
"","1733","same-different-html","97","1094686","0.0-3.0-94.0","","1598-8","""smooth""","""nopperi.wav""","191","smooth","NRI","same","1","T","smooth","Y","34"
"","1561","same-different-html","98","1099261","0.0-3.0-95.0","","1598-8","""subdued""","""batchiribatchiri.wav""","90","perfect","RNRI","different","1","D","subdued","Y","35"
"","1413","same-different-html","99","1103677","0.0-3.0-96.0","","1598-8","""stupid""","""gayagaya.wav""","191","noisy","RI","different","0","D","stupid","Y","36"
"","1748","same-different-html","100","1108429","0.0-3.0-97.0","","1598-8","""rude""","""zuke.wav""","191","rude","SRI","same","1","T","rude","Y","37"
"","1128","same-different-html","101","1112558","0.0-3.0-98.0","","1598-8","""harsh""","""furi.wav""","191","disadvantaged","NAdj","different","0","D","harsh","Y","38"
"","1427","same-different-html","102","1116990","0.0-3.0-99.0","","1598-8","""stiff""","""uki.wav""","191","happy","SRI","different","0","D","stiff","Y","39"
"","1728","same-different-html","103","1121727","0.0-3.0-100.0","","1598-8","""noisy""","""bukubuku.wav""","90","chubby","RI","different","1","D","noisy","Y","40"
"","1472","same-different-html","104","1126207","0.0-3.0-101.0","","1598-8","""chubby""","""zuke.wav""","191","rude","SRI","different","0","D","chubby","Y","41"
"","1429","same-different-html","105","1130638","0.0-3.0-102.0","","1598-8","""harsh""","""kokukoku.wav""","191","harsh","RNAdj","same","1","T","harsh","Y","42"
"","1493","same-different-html","106","1135134","0.0-3.0-103.0","","1598-8","""decisive""","""seka.wav""","191","hasty","SRI","different","0","D","decisive","Y","43"
"","1780","same-different-html","107","1139919","0.0-3.0-104.0","","1598-8","""chubby""","""bukubuku.wav""","191","chubby","RI","same","1","T","chubby","Y","44"
"","1442","same-different-html","108","1144367","0.0-3.0-105.0","","1598-8","""hesitant""","""damedame.wav""","90","useless","RNAdj","different","1","D","hesitant","Y","45"
"","1475","same-different-html","109","1148846","0.0-3.0-106.0","","1598-8","""subdued""","""jimijimi.wav""","90","subdued","RNAdj","same","0","T","subdued","Y","46"
"","1891","same-different-html","110","1153742","0.0-3.0-107.0","","1598-8","""careful""","""bakabaka.wav""","191","stupid","RNAdj","different","0","D","careful","Y","47"
"","1443","same-different-html","111","1158191","0.0-3.0-108.0","","1598-8","""fragile""","""jikkuri.wav""","191","careful","NRI","different","0","D","fragile","Y","48"
"[{""page_index"":0,""viewing_time"":3365}]","3365","instructions","112","1162557","0.0-3.0-109.0","","","","","","","","","","","","",""
