"view_history","rt","trial_type","trial_index","time_elapsed","internal_node_id","responses","Id","word","sound","key_press","TrueMeaning","WordType","answer","correct","TrialType","TargetMeaning","LegalTrial","trialNum"
"[{""page_index"":0,""viewing_time"":35960}]","35961","instructions","0","35964","0.0-0.0","","","","","","","","","","","","",""
"[{""page_index"":0,""viewing_time"":2575},{""page_index"":1,""viewing_time"":4673},{""page_index"":2,""viewing_time"":2567},{""page_index"":3,""viewing_time"":10440},{""page_index"":4,""viewing_time"":44951}]","65207","instructions","1","101173","0.0-1.0","","","","","","","","","","","","",""
"","14985","survey-multi-choice","2","116167","0.0-2.0","{""Q0"":""Yes"",""Q1"":""Yes"",""Q2"":""Yes"",""Q3"":""Yes"",""Q4"":""Yes""}","","","","","","","","","","","",""
"[{""page_index"":0,""viewing_time"":3066},{""page_index"":1,""viewing_time"":9459}]","12526","instructions","3","128694","0.0-3.0-0.0","","","","","","","","","","","","",""
"","11784","same-different-html-trial","4","146558","0.0-3.0-1.0","","0","""sushi""","""prc_sushi.wav""","32","","","","","","","",""
"[{""page_index"":0,""viewing_time"":26282}]","26283","instructions","5","173843","0.0-3.0-2.0","","","","","","","","","","","","",""
"","5865","same-different-html","6","181716","0.0-3.0-3.0","","0","""sushi""","""prc_sushi.wav""","191","","","same","1","","","0",""
"[{""page_index"":0,""viewing_time"":3118}]","3118","instructions","7","185834","0.0-3.0-4.0","","","","","","","","","","","","",""
"","3451","same-different-html","8","191294","0.0-3.0-5.0","","0","""cat""","""prc_sushi.wav""","90","","","different","1","","","0",""
"[{""page_index"":0,""viewing_time"":5227},{""page_index"":1,""viewing_time"":3558}]","8785","instructions","9","201080","0.0-3.0-6.0","","","","","","","","","","","","",""
"","3411","same-different-html-trial","10","210509","0.0-3.0-7.0","","0","""thank you""","""prc_arigato.wav""","32","","","","","","","",""
"[{""page_index"":0,""viewing_time"":6581}]","6582","instructions","11","218093","0.0-3.0-8.0","","","","","","","","","","","","",""
"","3273","same-different-html","12","223375","0.0-3.0-9.0","","0","""thank you""","""prc_arigato.wav""","191","","","same","1","","","0",""
"","2121","same-different-html","13","228505","0.0-3.0-10.0","","0","""cat""","""prc_arigato.wav""","90","","","different","1","","","0",""
"[{""page_index"":0,""viewing_time"":1827},{""page_index"":1,""viewing_time"":25466}]","27294","instructions","14","256799","0.0-3.0-11.0","","","","","","","","","","","","",""
"","6367","same-different-html-trial","15","269184","0.0-3.0-12.0","","6285-6","""disadvantaged""","""furi.wav""","32","disadvantaged","NAdj","","","","","","1"
"","7073","same-different-html-trial","16","283269","0.0-3.0-13.0","","6285-6","""supple""","""shinnarishinnari.wav""","32","supple","RNRI","","","","","","2"
"","2422","same-different-html-trial","17","292708","0.0-3.0-14.0","","6285-6","""stupid""","""baka.wav""","32","stupid","NAdj","","","","","","3"
"","2556","same-different-html-trial","18","302282","0.0-3.0-15.0","","6285-6","""noisy""","""gaya.wav""","32","noisy","SRI","","","","","","4"
"","5243","same-different-html-trial","19","314539","0.0-3.0-16.0","","6285-6","""crowded""","""bisshiribisshiri.wav""","32","crowded","RNRI","","","","","","5"
"","1756","same-different-html-trial","20","323310","0.0-3.0-17.0","","6285-6","""nonchalantly""","""kero.wav""","32","nonchalantly","NRI","","","","","","6"
"","2417","same-different-html-trial","21","332746","0.0-3.0-18.0","","6285-6","""impossible""","""murimuri.wav""","32","impossible","RNAdj","","","","","","7"
"","2255","same-different-html-trial","22","342025","0.0-3.0-19.0","","6285-6","""useless""","""damedame.wav""","32","useless","RNAdj","","","","","","8"
"","2688","same-different-html-trial","23","351728","0.0-3.0-20.0","","6285-6","""careful""","""jikkuri.wav""","32","careful","NRI","","","","","","9"
"","2508","same-different-html-trial","24","361251","0.0-3.0-21.0","","6285-6","""sudden""","""pata.wav""","32","sudden","NRI","","","","","","10"
"","4125","same-different-html-trial","25","372392","0.0-3.0-22.0","","6285-6","""hasty""","""sekaseka.wav""","32","hasty","RI","","","","","","11"
"","3010","same-different-html-trial","26","382418","0.0-3.0-23.0","","6285-6","""rare""","""mare.wav""","32","rare","NAdj","","","","","","12"
"","7072","same-different-html-trial","27","396507","0.0-3.0-24.0","","6285-6","""perfect""","""batchiribatchiri.wav""","32","perfect","RNRI","","","","","","13"
"","3039","same-different-html-trial","28","406561","0.0-3.0-25.0","","6285-6","""agitated""","""hiku.wav""","32","agitated","SRI","","","","","","14"
"","2489","same-different-html-trial","29","416073","0.0-3.0-26.0","","6285-6","""happy""","""uki.wav""","32","happy","SRI","","","","","","15"
"","9142","same-different-html-trial","30","432234","0.0-3.0-27.0","","6285-6","""wobbly""","""yurayura.wav""","32","wobbly","RI","","","","","","16"
"","1792","same-different-html-trial","31","441047","0.0-3.0-28.0","","6285-6","""sloppy""","""zatsu.wav""","32","sloppy","NAdj","","","","","","17"
"","4451","same-different-html-trial","32","452517","0.0-3.0-29.0","","6285-6","""gaudy""","""kabikabi.wav""","32","gaudy","RNAdj","","","","","","18"
"","2229","same-different-html-trial","33","461764","0.0-3.0-30.0","","6285-6","""glossy""","""tsuyatsuya.wav""","32","glossy","RI","","","","","","19"
"","12114","same-different-html-trial","34","480892","0.0-3.0-31.0","","6285-6","""whole""","""goso.wav""","32","whole","NRI","","","","","","20"
"","2150","same-different-html-trial","35","490057","0.0-3.0-32.0","","6285-6","""dejected""","""gakugaku.wav""","32","dejected","RNRI","","","","","","21"
"","1891","same-different-html-trial","36","498961","0.0-3.0-33.0","","6285-6","""whispering""","""hisohiso.wav""","32","whispering","RI","","","","","","22"
"","1359","same-different-html-trial","37","507336","0.0-3.0-34.0","","6285-6","""shivering""","""buru.wav""","32","shivering","SRI","","","","","","23"
"","2089","same-different-html-trial","38","516443","0.0-3.0-35.0","","6285-6","""smug""","""kizakiza.wav""","32","smug","RNAdj","","","","","","24"
"","2461","same-different-html-trial","39","525928","0.0-3.0-36.0","","6285-6","""noisy""","""gaya.wav""","32","noisy","SRI","","","","","","25"
"","312","same-different-html-trial","40","533260","0.0-3.0-37.0","","6285-6","""gaudy""","""kabikabi.wav""","32","gaudy","RNAdj","","","","","","26"
"","371","same-different-html-trial","41","540644","0.0-3.0-38.0","","6285-6","""shivering""","""buru.wav""","32","shivering","SRI","","","","","","27"
"","575","same-different-html-trial","42","548232","0.0-3.0-39.0","","6285-6","""hasty""","""sekaseka.wav""","32","hasty","RI","","","","","","28"
"","1984","same-different-html-trial","43","557228","0.0-3.0-40.0","","6285-6","""happy""","""uki.wav""","32","happy","SRI","","","","","","29"
"","1285","same-different-html-trial","44","565529","0.0-3.0-41.0","","6285-6","""agitated""","""hiku.wav""","32","agitated","SRI","","","","","","30"
"","357","same-different-html-trial","45","572901","0.0-3.0-42.0","","6285-6","""impossible""","""murimuri.wav""","32","impossible","RNAdj","","","","","","31"
"","476","same-different-html-trial","46","580397","0.0-3.0-43.0","","6285-6","""whole""","""goso.wav""","32","whole","NRI","","","","","","32"
"","1494","same-different-html-trial","47","588909","0.0-3.0-44.0","","6285-6","""dejected""","""gakugaku.wav""","32","dejected","RNRI","","","","","","33"
"","2095","same-different-html-trial","48","598025","0.0-3.0-45.0","","6285-6","""supple""","""shinnarishinnari.wav""","32","supple","RNRI","","","","","","34"
"","1309","same-different-html-trial","49","606350","0.0-3.0-46.0","","6285-6","""wobbly""","""yurayura.wav""","32","wobbly","RI","","","","","","35"
"","33900","same-different-html-trial","50","647263","0.0-3.0-47.0","","6285-6","""stupid""","""baka.wav""","32","stupid","NAdj","","","","","","36"
"","432","same-different-html-trial","51","654708","0.0-3.0-48.0","","6285-6","""sudden""","""pata.wav""","32","sudden","NRI","","","","","","37"
"","2985","same-different-html-trial","52","664711","0.0-3.0-49.0","","6285-6","""perfect""","""batchiribatchiri.wav""","32","perfect","RNRI","","","","","","38"
"","1784","same-different-html-trial","53","673517","0.0-3.0-50.0","","6285-6","""useless""","""damedame.wav""","32","useless","RNAdj","","","","","","39"
"","440","same-different-html-trial","54","680970","0.0-3.0-51.0","","6285-6","""disadvantaged""","""furi.wav""","32","disadvantaged","NAdj","","","","","","40"
"","371","same-different-html-trial","55","688357","0.0-3.0-52.0","","6285-6","""smug""","""kizakiza.wav""","32","smug","RNAdj","","","","","","41"
"","424","same-different-html-trial","56","695797","0.0-3.0-53.0","","6285-6","""glossy""","""tsuyatsuya.wav""","32","glossy","RI","","","","","","42"
"","1196","same-different-html-trial","57","704006","0.0-3.0-54.0","","6285-6","""nonchalantly""","""kero.wav""","32","nonchalantly","NRI","","","","","","43"
"","5948","same-different-html-trial","58","716967","0.0-3.0-55.0","","6285-6","""rare""","""mare.wav""","32","rare","NAdj","","","","","","44"
"","231","same-different-html-trial","59","724212","0.0-3.0-56.0","","6285-6","""crowded""","""bisshiribisshiri.wav""","32","crowded","RNRI","","","","","","45"
"","1682","same-different-html-trial","60","732913","0.0-3.0-57.0","","6285-6","""whispering""","""hisohiso.wav""","32","whispering","RI","","","","","","46"
"","1011","same-different-html-trial","61","740953","0.0-3.0-58.0","","6285-6","""careful""","""jikkuri.wav""","32","careful","NRI","","","","","","47"
"","1121","same-different-html-trial","62","749089","0.0-3.0-59.0","","6285-6","""sloppy""","""zatsu.wav""","32","sloppy","NAdj","","","","","","48"
"[{""page_index"":0,""viewing_time"":17508}]","17509","instructions","63","767599","0.0-3.0-60.0","","","","","","","","","","","","",""
"","3723","same-different-html","64","773331","0.0-3.0-61.0","","6285-6","""smug""","""bisshiribisshiri.wav""","90","crowded","RNRI","different","1","D","smug","Y","1"
"","9956","same-different-html","65","786297","0.0-3.0-62.0","","6285-6","""nonchalantly""","""kero.wav""","191","nonchalantly","NRI","same","1","T","nonchalantly","Y","2"
"","3116","same-different-html","66","792425","0.0-3.0-63.0","","6285-6","""whole""","""goso.wav""","191","whole","NRI","same","1","T","whole","Y","3"
"","2745","same-different-html","67","798178","0.0-3.0-64.0","","6285-6","""hasty""","""gaya.wav""","191","noisy","SRI","different","0","D","hasty","Y","4"
"","3542","same-different-html","68","804732","0.0-3.0-65.0","","6285-6","""useless""","""damedame.wav""","191","useless","RNAdj","same","1","T","useless","Y","5"
"","3558","same-different-html","69","811306","0.0-3.0-66.0","","6285-6","""shivering""","""jikkuri.wav""","90","careful","NRI","different","1","D","shivering","Y","6"
"","2080","same-different-html","70","816409","0.0-3.0-67.0","","6285-6","""gaudy""","""hisohiso.wav""","90","whispering","RI","different","1","D","gaudy","Y","7"
"","2897","same-different-html","71","822315","0.0-3.0-68.0","","6285-6","""sudden""","""uki.wav""","90","happy","SRI","different","1","D","sudden","Y","8"
"","2197","same-different-html","72","827524","0.0-3.0-69.0","","6285-6","""glossy""","""tsuyatsuya.wav""","191","glossy","RI","same","1","T","glossy","Y","9"
"","3610","same-different-html","73","834145","0.0-3.0-70.0","","6285-6","""dejected""","""gakugaku.wav""","191","dejected","RNRI","same","1","T","dejected","Y","10"
"","3533","same-different-html","74","840687","0.0-3.0-71.0","","6285-6","""noisy""","""gaya.wav""","191","noisy","SRI","same","1","T","noisy","Y","11"
"","1545","same-different-html","75","845240","0.0-3.0-72.0","","6285-6","""supple""","""gakugaku.wav""","90","dejected","RNRI","different","1","D","supple","Y","12"
"","3724","same-different-html","76","851972","0.0-3.0-73.0","","6285-6","""careful""","""kero.wav""","90","nonchalantly","NRI","different","1","D","careful","Y","13"
"","3007","same-different-html","77","857988","0.0-3.0-74.0","","6285-6","""sudden""","""pata.wav""","90","sudden","NRI","same","0","T","sudden","Y","14"
"","2131","same-different-html","78","863128","0.0-3.0-75.0","","6285-6","""supple""","""shinnarishinnari.wav""","191","supple","RNRI","same","1","T","supple","Y","15"
"","3128","same-different-html","79","869263","0.0-3.0-76.0","","6285-6","""perfect""","""batchiribatchiri.wav""","191","perfect","RNRI","same","1","T","perfect","Y","16"
"","1579","same-different-html","80","873851","0.0-3.0-77.0","","6285-6","""shivering""","""buru.wav""","191","shivering","SRI","same","1","T","shivering","Y","17"
"","1552","same-different-html","81","878412","0.0-3.0-78.0","","6285-6","""impossible""","""buru.wav""","90","shivering","SRI","different","1","D","impossible","Y","18"
"","9713","same-different-html","82","891136","0.0-3.0-79.0","","6285-6","""agitated""","""murimuri.wav""","191","impossible","RNAdj","different","0","D","agitated","Y","19"
"","3532","same-different-html","83","897682","0.0-3.0-80.0","","6285-6","""nonchalantly""","""zatsu.wav""","90","sloppy","NAdj","different","1","D","nonchalantly","Y","20"
"","1840","same-different-html","84","902530","0.0-3.0-81.0","","6285-6","""noisy""","""furi.wav""","191","disadvantaged","NAdj","different","0","D","noisy","Y","21"
"","4872","same-different-html","85","910409","0.0-3.0-82.0","","6285-6","""sloppy""","""zatsu.wav""","191","sloppy","NAdj","same","1","T","sloppy","Y","22"
"","8579","same-different-html","86","921998","0.0-3.0-83.0","","6285-6","""disadvantaged""","""baka.wav""","191","stupid","NAdj","different","0","D","disadvantaged","Y","23"
"","4536","same-different-html","87","929544","0.0-3.0-84.0","","6285-6","""disadvantaged""","""furi.wav""","90","disadvantaged","NAdj","same","0","T","disadvantaged","Y","24"
"","1710","same-different-html","88","934264","0.0-3.0-85.0","","6285-6","""wobbly""","""kabikabi.wav""","90","gaudy","RNAdj","different","1","D","wobbly","Y","25"
"","3135","same-different-html","89","940414","0.0-3.0-86.0","","6285-6","""dejected""","""tsuyatsuya.wav""","191","glossy","RI","different","0","D","dejected","Y","26"
"","3093","same-different-html","90","946517","0.0-3.0-87.0","","6285-6","""hasty""","""sekaseka.wav""","90","hasty","RI","same","0","T","hasty","Y","27"
"","1062","same-different-html","91","950588","0.0-3.0-88.0","","6285-6","""gaudy""","""kabikabi.wav""","191","gaudy","RNAdj","same","1","T","gaudy","Y","28"
"","1256","same-different-html","92","954865","0.0-3.0-89.0","","6285-6","""rare""","""mare.wav""","191","rare","NAdj","same","1","T","rare","Y","29"
"","1415","same-different-html","93","959286","0.0-3.0-90.0","","6285-6","""glossy""","""goso.wav""","90","whole","NRI","different","1","D","glossy","Y","30"
"","1313","same-different-html","94","963608","0.0-3.0-91.0","","6285-6","""perfect""","""mare.wav""","90","rare","NAdj","different","1","D","perfect","Y","31"
"","2756","same-different-html","95","969372","0.0-3.0-92.0","","6285-6","""wobbly""","""yurayura.wav""","191","wobbly","RI","same","1","T","wobbly","Y","32"
"","3299","same-different-html","96","975681","0.0-3.0-93.0","","6285-6","""crowded""","""shinnarishinnari.wav""","90","supple","RNRI","different","1","D","crowded","Y","33"
"","2473","same-different-html","97","981165","0.0-3.0-94.0","","6285-6","""happy""","""hiku.wav""","90","agitated","SRI","different","1","D","happy","Y","34"
"","1056","same-different-html","98","985228","0.0-3.0-95.0","","6285-6","""happy""","""uki.wav""","191","happy","SRI","same","1","T","happy","Y","35"
"","2562","same-different-html","99","990797","0.0-3.0-96.0","","6285-6","""whispering""","""sekaseka.wav""","90","hasty","RI","different","1","D","whispering","Y","36"
"","2322","same-different-html","100","996129","0.0-3.0-97.0","","6285-6","""impossible""","""murimuri.wav""","90","impossible","RNAdj","same","0","T","impossible","Y","37"
"","1417","same-different-html","101","1000556","0.0-3.0-98.0","","6285-6","""rare""","""batchiribatchiri.wav""","90","perfect","RNRI","different","1","D","rare","Y","38"
"","4778","same-different-html","102","1008348","0.0-3.0-99.0","","6285-6","""stupid""","""baka.wav""","191","stupid","NAdj","same","1","T","stupid","Y","39"
"","7577","same-different-html","103","1018930","0.0-3.0-100.0","","6285-6","""stupid""","""damedame.wav""","90","useless","RNAdj","different","1","D","stupid","Y","40"
"","2508","same-different-html","104","1024455","0.0-3.0-101.0","","6285-6","""useless""","""kizakiza.wav""","90","smug","RNAdj","different","1","D","useless","Y","41"
"","1881","same-different-html","105","1029344","0.0-3.0-102.0","","6285-6","""careful""","""jikkuri.wav""","191","careful","NRI","same","1","T","careful","Y","42"
"","1281","same-different-html","106","1033639","0.0-3.0-103.0","","6285-6","""smug""","""kizakiza.wav""","191","smug","RNAdj","same","1","T","smug","Y","43"
"","5175","same-different-html","107","1041822","0.0-3.0-104.0","","6285-6","""crowded""","""bisshiribisshiri.wav""","191","crowded","RNRI","same","1","T","crowded","Y","44"
"","1408","same-different-html","108","1046243","0.0-3.0-105.0","","6285-6","""whispering""","""hisohiso.wav""","191","whispering","RI","same","1","T","whispering","Y","45"
"","1923","same-different-html","109","1051175","0.0-3.0-106.0","","6285-6","""agitated""","""hiku.wav""","191","agitated","SRI","same","1","T","agitated","Y","46"
"","2137","same-different-html","110","1056324","0.0-3.0-107.0","","6285-6","""sloppy""","""yurayura.wav""","90","wobbly","RI","different","1","D","sloppy","Y","47"
"","2199","same-different-html","111","1061531","0.0-3.0-108.0","","6285-6","""whole""","""pata.wav""","90","sudden","NRI","different","1","D","whole","Y","48"
"[{""page_index"":0,""viewing_time"":11229}]","11229","instructions","112","1073760","0.0-3.0-109.0","","","","","","","","","","","","",""
