"view_history","rt","trial_type","trial_index","time_elapsed","internal_node_id","responses","Id","word","sound","key_press","TrueMeaning","WordType","answer","correct","TrialType","TargetMeaning","LegalTrial","trialNum"
"[{""page_index"":0,""viewing_time"":11521}]","11523","instructions","0","11524","0.0-0.0","","","","","","","","","","","","",""
"[{""page_index"":0,""viewing_time"":2126},{""page_index"":1,""viewing_time"":4463},{""page_index"":2,""viewing_time"":2581},{""page_index"":3,""viewing_time"":8019},{""page_index"":4,""viewing_time"":11162}]","28351","instructions","1","39875","0.0-1.0","","","","","","","","","","","","",""
"","12811","survey-multi-choice","2","52690","0.0-2.0","{""Q0"":""Yes"",""Q1"":""Yes"",""Q2"":""Yes"",""Q3"":""Yes"",""Q4"":""Yes""}","","","","","","","","","","","",""
"[{""page_index"":0,""viewing_time"":1817},{""page_index"":1,""viewing_time"":7558}]","9375","instructions","3","62065","0.0-3.0-0.0","","","","","","","","","","","","",""
"","4370","same-different-html-trial","4","72451","0.0-3.0-1.0","","0","""sushi""","""prc_sushi.wav""","32","","","","","","","",""
"[{""page_index"":0,""viewing_time"":12108}]","12108","instructions","5","85561","0.0-3.0-2.0","","","","","","","","","","","","",""
"","6993","same-different-html","6","94559","0.0-3.0-3.0","","0","""sushi""","""prc_sushi.wav""","191","","","same","1","","","0",""
"[{""page_index"":0,""viewing_time"":5233}]","5233","instructions","7","100793","0.0-3.0-4.0","","","","","","","","","","","","",""
"","3408","same-different-html","8","106208","0.0-3.0-5.0","","0","""cat""","""prc_sushi.wav""","90","","","different","1","","","0",""
"[{""page_index"":0,""viewing_time"":4823},{""page_index"":1,""viewing_time"":1588}]","6411","instructions","9","113620","0.0-3.0-6.0","","","","","","","","","","","","",""
"","1976","same-different-html-trial","10","121608","0.0-3.0-7.0","","0","""thank you""","""prc_arigato.wav""","32","","","","","","","",""
"[{""page_index"":0,""viewing_time"":4121}]","4121","instructions","11","126730","0.0-3.0-8.0","","","","","","","","","","","","",""
"","1256","same-different-html","12","129991","0.0-3.0-9.0","","0","""thank you""","""prc_arigato.wav""","191","","","same","1","","","0",""
"","1363","same-different-html","13","134360","0.0-3.0-10.0","","0","""cat""","""prc_arigato.wav""","90","","","different","1","","","0",""
"[{""page_index"":0,""viewing_time"":2589},{""page_index"":1,""viewing_time"":14182}]","16771","instructions","14","152133","0.0-3.0-11.0","","","","","","","","","","","","",""
"","1522","same-different-html-trial","15","159663","0.0-3.0-12.0","","2269-2","""worn out""","""boroboro.wav""","32","worn out","RI","","","","","","1"
"","1326","same-different-html-trial","16","168007","0.0-3.0-13.0","","2269-2","""smug""","""kizakiza.wav""","32","smug","RNAdj","","","","","","2"
"","1037","same-different-html-trial","17","176055","0.0-3.0-14.0","","2269-2","""whispering""","""hiso.wav""","32","whispering","SRI","","","","","","3"
"","1886","same-different-html-trial","18","184952","0.0-3.0-15.0","","2269-2","""resolute""","""bassaribassari.wav""","32","resolute","RNRI","","","","","","4"
"","1228","same-different-html-trial","19","193191","0.0-3.0-16.0","","2269-2","""rare""","""maremare.wav""","32","rare","RNAdj","","","","","","5"
"","1389","same-different-html-trial","20","201591","0.0-3.0-17.0","","2269-2","""dejected""","""gakugaku.wav""","32","dejected","RNRI","","","","","","6"
"","932","same-different-html-trial","21","209534","0.0-3.0-18.0","","2269-2","""glossy""","""tsuya.wav""","32","glossy","SRI","","","","","","7"
"","1249","same-different-html-trial","22","217792","0.0-3.0-19.0","","2269-2","""shivering""","""buruburu.wav""","32","shivering","RI","","","","","","8"
"","1052","same-different-html-trial","23","225854","0.0-3.0-20.0","","2269-2","""useless""","""dame.wav""","32","useless","NAdj","","","","","","9"
"","1236","same-different-html-trial","24","234102","0.0-3.0-21.0","","2269-2","""careful""","""jikkuri.wav""","32","careful","NRI","","","","","","10"
"","1124","same-different-html-trial","25","242238","0.0-3.0-22.0","","2269-2","""fragile""","""yawayawa.wav""","32","fragile","RNAdj","","","","","","11"
"","1821","same-different-html-trial","26","251070","0.0-3.0-23.0","","2269-2","""noisy""","""gaya.wav""","32","noisy","SRI","","","","","","12"
"","1539","same-different-html-trial","27","259622","0.0-3.0-24.0","","2269-2","""humid""","""mushimushi.wav""","32","humid","RI","","","","","","13"
"","1390","same-different-html-trial","28","268022","0.0-3.0-25.0","","2269-2","""disadvantaged""","""furifuri.wav""","32","disadvantaged","RNAdj","","","","","","14"
"","1871","same-different-html-trial","29","276902","0.0-3.0-26.0","","2269-2","""smooth""","""nopperinopperi.wav""","32","smooth","RNRI","","","","","","15"
"","1117","same-different-html-trial","30","285030","0.0-3.0-27.0","","2269-2","""vulgar""","""zoku.wav""","32","vulgar","NAdj","","","","","","16"
"","1119","same-different-html-trial","31","293157","0.0-3.0-28.0","","2269-2","""sloppy""","""zatsu.wav""","32","sloppy","NAdj","","","","","","17"
"","1688","same-different-html-trial","32","301854","0.0-3.0-29.0","","2269-2","""impossible""","""muri.wav""","32","impossible","NAdj","","","","","","18"
"","964","same-different-html-trial","33","309830","0.0-3.0-30.0","","2269-2","""sullen""","""musu.wav""","32","sullen","NRI","","","","","","19"
"","958","same-different-html-trial","34","317798","0.0-3.0-31.0","","2269-2","""nonchalantly""","""kero.wav""","32","nonchalantly","NRI","","","","","","20"
"","1795","same-different-html-trial","35","326602","0.0-3.0-32.0","","2269-2","""sturdy""","""gashigashi.wav""","32","sturdy","RNRI","","","","","","21"
"","1090","same-different-html-trial","36","334701","0.0-3.0-33.0","","2269-2","""sudden""","""pata.wav""","32","sudden","NRI","","","","","","22"
"","1100","same-different-html-trial","37","342812","0.0-3.0-34.0","","2269-2","""happy""","""ukiuki.wav""","32","happy","RI","","","","","","23"
"","1599","same-different-html-trial","38","351437","0.0-3.0-35.0","","2269-2","""hasty""","""seka.wav""","32","hasty","SRI","","","","","","24"
"","991","same-different-html-trial","39","359437","0.0-3.0-36.0","","2269-2","""noisy""","""gaya.wav""","32","noisy","SRI","","","","","","25"
"","894","same-different-html-trial","40","367341","0.0-3.0-37.0","","2269-2","""smug""","""kizakiza.wav""","32","smug","RNAdj","","","","","","26"
"","988","same-different-html-trial","41","375341","0.0-3.0-38.0","","2269-2","""nonchalantly""","""kero.wav""","32","nonchalantly","NRI","","","","","","27"
"","1024","same-different-html-trial","42","383373","0.0-3.0-39.0","","2269-2","""whispering""","""hiso.wav""","32","whispering","SRI","","","","","","28"
"","878","same-different-html-trial","43","391261","0.0-3.0-40.0","","2269-2","""sullen""","""musu.wav""","32","sullen","NRI","","","","","","29"
"","895","same-different-html-trial","44","399166","0.0-3.0-41.0","","2269-2","""impossible""","""muri.wav""","32","impossible","NAdj","","","","","","30"
"","1139","same-different-html-trial","45","407315","0.0-3.0-42.0","","2269-2","""shivering""","""buruburu.wav""","32","shivering","RI","","","","","","31"
"","997","same-different-html-trial","46","415324","0.0-3.0-43.0","","2269-2","""useless""","""dame.wav""","32","useless","NAdj","","","","","","32"
"","348","same-different-html-trial","47","422700","0.0-3.0-44.0","","2269-2","""rare""","""maremare.wav""","32","rare","RNAdj","","","","","","33"
"","816","same-different-html-trial","48","430525","0.0-3.0-45.0","","2269-2","""sloppy""","""zatsu.wav""","32","sloppy","NAdj","","","","","","34"
"","1069","same-different-html-trial","49","438604","0.0-3.0-46.0","","2269-2","""sudden""","""pata.wav""","32","sudden","NRI","","","","","","35"
"","907","same-different-html-trial","50","446523","0.0-3.0-47.0","","2269-2","""hasty""","""seka.wav""","32","hasty","SRI","","","","","","36"
"","399","same-different-html-trial","51","453932","0.0-3.0-48.0","","2269-2","""vulgar""","""zoku.wav""","32","vulgar","NAdj","","","","","","37"
"","1303","same-different-html-trial","52","462244","0.0-3.0-49.0","","2269-2","""worn out""","""boroboro.wav""","32","worn out","RI","","","","","","38"
"","1372","same-different-html-trial","53","470628","0.0-3.0-50.0","","2269-2","""dejected""","""gakugaku.wav""","32","dejected","RNRI","","","","","","39"
"","1519","same-different-html-trial","54","479156","0.0-3.0-51.0","","2269-2","""smooth""","""nopperinopperi.wav""","32","smooth","RNRI","","","","","","40"
"","801","same-different-html-trial","55","486963","0.0-3.0-52.0","","2269-2","""humid""","""mushimushi.wav""","32","humid","RI","","","","","","41"
"","1166","same-different-html-trial","56","495140","0.0-3.0-53.0","","2269-2","""happy""","""ukiuki.wav""","32","happy","RI","","","","","","42"
"","1103","same-different-html-trial","57","503252","0.0-3.0-54.0","","2269-2","""disadvantaged""","""furifuri.wav""","32","disadvantaged","RNAdj","","","","","","43"
"","2117","same-different-html-trial","58","512380","0.0-3.0-55.0","","2269-2","""careful""","""jikkuri.wav""","32","careful","NRI","","","","","","44"
"","1021","same-different-html-trial","59","520411","0.0-3.0-56.0","","2269-2","""glossy""","""tsuya.wav""","32","glossy","SRI","","","","","","45"
"","4103","same-different-html-trial","60","531523","0.0-3.0-57.0","","2269-2","""sturdy""","""gashigashi.wav""","32","sturdy","RNRI","","","","","","46"
"","1516","same-different-html-trial","61","540051","0.0-3.0-58.0","","2269-2","""resolute""","""bassaribassari.wav""","32","resolute","RNRI","","","","","","47"
"","661","same-different-html-trial","62","547723","0.0-3.0-59.0","","2269-2","""fragile""","""yawayawa.wav""","32","fragile","RNAdj","","","","","","48"
"[{""page_index"":0,""viewing_time"":4221}]","4221","instructions","63","552945","0.0-3.0-60.0","","","","","","","","","","","","",""
"","4837","same-different-html","64","559787","0.0-3.0-61.0","","2269-2","""sullen""","""zoku.wav""","191","vulgar","NAdj","different","0","D","sullen","Y","1"
"","2347","same-different-html","65","565138","0.0-3.0-62.0","","2269-2","""careful""","""buruburu.wav""","191","shivering","RI","different","0","D","careful","Y","2"
"","2195","same-different-html","66","570339","0.0-3.0-63.0","","2269-2","""resolute""","""pata.wav""","90","sudden","NRI","different","1","D","resolute","Y","3"
"","2722","same-different-html","67","576066","0.0-3.0-64.0","","2269-2","""smooth""","""nopperinopperi.wav""","90","smooth","RNRI","same","0","T","smooth","Y","4"
"","2724","same-different-html","68","581795","0.0-3.0-65.0","","2269-2","""humid""","""mushimushi.wav""","191","humid","RI","same","1","T","humid","Y","5"
"","2847","same-different-html","69","587651","0.0-3.0-66.0","","2269-2","""useless""","""muri.wav""","90","impossible","NAdj","different","1","D","useless","Y","6"
"","2915","same-different-html","70","593571","0.0-3.0-67.0","","2269-2","""worn out""","""boroboro.wav""","191","worn out","RI","same","1","T","worn out","Y","7"
"","2650","same-different-html","71","599226","0.0-3.0-68.0","","2269-2","""hasty""","""mushimushi.wav""","90","humid","RI","different","1","D","hasty","Y","8"
"","2696","same-different-html","72","604930","0.0-3.0-69.0","","2269-2","""careful""","""jikkuri.wav""","191","careful","NRI","same","1","T","careful","Y","9"
"","2946","same-different-html","73","610883","0.0-3.0-70.0","","2269-2","""dejected""","""gakugaku.wav""","90","dejected","RNRI","same","0","T","dejected","Y","10"
"","3053","same-different-html","74","616939","0.0-3.0-71.0","","2269-2","""whispering""","""hiso.wav""","191","whispering","SRI","same","1","T","whispering","Y","11"
"","3810","same-different-html","75","623754","0.0-3.0-72.0","","2269-2","""nonchalantly""","""musu.wav""","191","sullen","NRI","different","0","D","nonchalantly","Y","12"
"","2849","same-different-html","76","629610","0.0-3.0-73.0","","2269-2","""dejected""","""tsuya.wav""","90","glossy","SRI","different","1","D","dejected","Y","13"
"","2202","same-different-html","77","634818","0.0-3.0-74.0","","2269-2","""useless""","""dame.wav""","191","useless","NAdj","same","1","T","useless","Y","14"
"","2949","same-different-html","78","640771","0.0-3.0-75.0","","2269-2","""sturdy""","""hiso.wav""","191","whispering","SRI","different","0","D","sturdy","Y","15"
"","2873","same-different-html","79","646650","0.0-3.0-76.0","","2269-2","""rare""","""maremare.wav""","191","rare","RNAdj","same","1","T","rare","Y","16"
"","1953","same-different-html","80","651610","0.0-3.0-77.0","","2269-2","""shivering""","""buruburu.wav""","191","shivering","RI","same","1","T","shivering","Y","17"
"","2290","same-different-html","81","656906","0.0-3.0-78.0","","2269-2","""fragile""","""yawayawa.wav""","90","fragile","RNAdj","same","0","T","fragile","Y","18"
"","2981","same-different-html","82","662893","0.0-3.0-79.0","","2269-2","""disadvantaged""","""furifuri.wav""","90","disadvantaged","RNAdj","same","0","T","disadvantaged","Y","19"
"","2278","same-different-html","83","668177","0.0-3.0-80.0","","2269-2","""sullen""","""musu.wav""","191","sullen","NRI","same","1","T","sullen","Y","20"
"","2184","same-different-html","84","673369","0.0-3.0-81.0","","2269-2","""noisy""","""gaya.wav""","191","noisy","SRI","same","1","T","noisy","Y","21"
"","1873","same-different-html","85","678249","0.0-3.0-82.0","","2269-2","""smug""","""kizakiza.wav""","90","smug","RNAdj","same","0","T","smug","Y","22"
"","2097","same-different-html","86","683353","0.0-3.0-83.0","","2269-2","""vulgar""","""zoku.wav""","191","vulgar","NAdj","same","1","T","vulgar","Y","23"
"","3170","same-different-html","87","689529","0.0-3.0-84.0","","2269-2","""shivering""","""ukiuki.wav""","191","happy","RI","different","0","D","shivering","Y","24"
"","2491","same-different-html","88","695025","0.0-3.0-85.0","","2269-2","""whispering""","""jikkuri.wav""","191","careful","NRI","different","0","D","whispering","Y","25"
"","2296","same-different-html","89","700329","0.0-3.0-86.0","","2269-2","""smooth""","""gakugaku.wav""","90","dejected","RNRI","different","1","D","smooth","Y","26"
"","2489","same-different-html","90","705826","0.0-3.0-87.0","","2269-2","""sudden""","""seka.wav""","191","hasty","SRI","different","0","D","sudden","Y","27"
"","2433","same-different-html","91","711266","0.0-3.0-88.0","","2269-2","""hasty""","""seka.wav""","90","hasty","SRI","same","0","T","hasty","Y","28"
"","2916","same-different-html","92","717185","0.0-3.0-89.0","","2269-2","""glossy""","""yawayawa.wav""","90","fragile","RNAdj","different","1","D","glossy","Y","29"
"","4619","same-different-html","93","724809","0.0-3.0-90.0","","2269-2","""rare""","""kero.wav""","90","nonchalantly","NRI","different","1","D","rare","Y","30"
"","3011","same-different-html","94","730825","0.0-3.0-91.0","","2269-2","""worn out""","""kizakiza.wav""","191","smug","RNAdj","different","0","D","worn out","Y","31"
"","2979","same-different-html","95","736810","0.0-3.0-92.0","","2269-2","""happy""","""zatsu.wav""","191","sloppy","NAdj","different","0","D","happy","Y","32"
"","2290","same-different-html","96","742105","0.0-3.0-93.0","","2269-2","""sudden""","""pata.wav""","191","sudden","NRI","same","1","T","sudden","Y","33"
"","2833","same-different-html","97","747946","0.0-3.0-94.0","","2269-2","""sturdy""","""gashigashi.wav""","191","sturdy","RNRI","same","1","T","sturdy","Y","34"
"","3122","same-different-html","98","754073","0.0-3.0-95.0","","2269-2","""sloppy""","""furifuri.wav""","90","disadvantaged","RNAdj","different","1","D","sloppy","Y","35"
"","2676","same-different-html","99","759753","0.0-3.0-96.0","","2269-2","""humid""","""maremare.wav""","90","rare","RNAdj","different","1","D","humid","Y","36"
"","3291","same-different-html","100","766050","0.0-3.0-97.0","","2269-2","""sloppy""","""zatsu.wav""","191","sloppy","NAdj","same","1","T","sloppy","Y","37"
"","2707","same-different-html","101","771761","0.0-3.0-98.0","","2269-2","""noisy""","""bassaribassari.wav""","90","resolute","RNRI","different","1","D","noisy","Y","38"
"","2903","same-different-html","102","777673","0.0-3.0-99.0","","2269-2","""vulgar""","""nopperinopperi.wav""","191","smooth","RNRI","different","0","D","vulgar","Y","39"
"","2907","same-different-html","103","783585","0.0-3.0-100.0","","2269-2","""happy""","""ukiuki.wav""","191","happy","RI","same","1","T","happy","Y","40"
"","2594","same-different-html","104","789185","0.0-3.0-101.0","","2269-2","""resolute""","""bassaribassari.wav""","191","resolute","RNRI","same","1","T","resolute","Y","41"
"","2867","same-different-html","105","795057","0.0-3.0-102.0","","2269-2","""disadvantaged""","""gaya.wav""","191","noisy","SRI","different","0","D","disadvantaged","Y","42"
"","3002","same-different-html","106","801065","0.0-3.0-103.0","","2269-2","""fragile""","""dame.wav""","191","useless","NAdj","different","0","D","fragile","Y","43"
"","2953","same-different-html","107","807024","0.0-3.0-104.0","","2269-2","""nonchalantly""","""kero.wav""","90","nonchalantly","NRI","same","0","T","nonchalantly","Y","44"
"","3900","same-different-html","108","813928","0.0-3.0-105.0","","2269-2","""impossible""","""muri.wav""","191","impossible","NAdj","same","1","T","impossible","Y","45"
"","3108","same-different-html","109","820041","0.0-3.0-106.0","","2269-2","""smug""","""boroboro.wav""","191","worn out","RI","different","0","D","smug","Y","46"
"","2876","same-different-html","110","825921","0.0-3.0-107.0","","2269-2","""glossy""","""tsuya.wav""","191","glossy","SRI","same","1","T","glossy","Y","47"
"","2835","same-different-html","111","831761","0.0-3.0-108.0","","2269-2","""impossible""","""gashigashi.wav""","90","sturdy","RNRI","different","1","D","impossible","Y","48"
"[{""page_index"":0,""viewing_time"":9216}]","9217","instructions","112","841978","0.0-3.0-109.0","","","","","","","","","","","","",""
