"view_history","rt","trial_type","trial_index","time_elapsed","internal_node_id","responses","Id","word","sound","key_press","TrueMeaning","WordType","answer","correct","TrialType","TargetMeaning","LegalTrial","trialNum"
"[{""page_index"":0,""viewing_time"":18167}]","18167","instructions","0","18170","0.0-0.0","","","","","","","","","","","","",""
"[{""page_index"":0,""viewing_time"":1614},{""page_index"":1,""viewing_time"":2335},{""page_index"":2,""viewing_time"":1888},{""page_index"":3,""viewing_time"":10280},{""page_index"":4,""viewing_time"":4760}]","20877","instructions","1","39048","0.0-1.0","","","","","","","","","","","","",""
"","8931","survey-multi-choice","2","47986","0.0-2.0","{""Q0"":""Yes"",""Q1"":""Yes"",""Q2"":""Yes"",""Q3"":""Yes"",""Q4"":""Yes""}","","","","","","","","","","","",""
"[{""page_index"":0,""viewing_time"":1318},{""page_index"":1,""viewing_time"":3240}]","4559","instructions","3","52545","0.0-3.0-0.0","","","","","","","","","","","","",""
"","2218","same-different-html-trial","4","60786","0.0-3.0-1.0","","0","""sushi""","""prc_sushi.wav""","32","","","","","","","",""
"[{""page_index"":0,""viewing_time"":5558}]","5558","instructions","5","67345","0.0-3.0-2.0","","","","","","","","","","","","",""
"","10266","same-different-html","6","79617","0.0-3.0-3.0","","0","""sushi""","""prc_sushi.wav""","90","","","same","0","","","0",""
"[{""page_index"":0,""viewing_time"":2829}]","2829","instructions","7","83448","0.0-3.0-4.0","","","","","","","","","","","","",""
"","2545","same-different-html","8","88001","0.0-3.0-5.0","","0","""cat""","""prc_sushi.wav""","90","","","different","1","","","0",""
"[{""page_index"":0,""viewing_time"":2136},{""page_index"":1,""viewing_time"":2039}]","4176","instructions","9","93177","0.0-3.0-6.0","","","","","","","","","","","","",""
"","5452","same-different-html-trial","10","104641","0.0-3.0-7.0","","0","""thank you""","""prc_arigato.wav""","32","","","","","","","",""
"[{""page_index"":0,""viewing_time"":2021}]","2021","instructions","11","107665","0.0-3.0-8.0","","","","","","","","","","","","",""
"","4108","same-different-html","12","113777","0.0-3.0-9.0","","0","""thank you""","""prc_arigato.wav""","191","","","same","1","","","0",""
"","1791","same-different-html","13","118577","0.0-3.0-10.0","","0","""cat""","""prc_arigato.wav""","90","","","different","1","","","0",""
"[{""page_index"":0,""viewing_time"":1333},{""page_index"":1,""viewing_time"":1545}]","2879","instructions","14","122457","0.0-3.0-11.0","","","","","","","","","","","","",""
"","1674","same-different-html-trial","15","130143","0.0-3.0-12.0","","9714-4","""rash""","""muchamucha.wav""","32","rash","RNAdj","","","","","","1"
"","8940","same-different-html-trial","16","146096","0.0-3.0-13.0","","9714-4","""tasteless""","""yabo.wav""","32","tasteless","NAdj","","","","","","2"
"","1262","same-different-html-trial","17","154368","0.0-3.0-14.0","","9714-4","""suspenseful""","""harahara.wav""","32","suspenseful","RI","","","","","","3"
"","1465","same-different-html-trial","18","162847","0.0-3.0-15.0","","9714-4","""free""","""himahima.wav""","32","free","RNAdj","","","","","","4"
"","1787","same-different-html-trial","19","171647","0.0-3.0-16.0","","9714-4","""supple""","""shinnari.wav""","32","supple","NRI","","","","","","5"
"","776","same-different-html-trial","20","179438","0.0-3.0-17.0","","9714-4","""plump""","""potchari.wav""","32","plump","NRI","","","","","","6"
"","1736","same-different-html-trial","21","188191","0.0-3.0-18.0","","9714-4","""agitated""","""hikuhiku.wav""","32","agitated","RI","","","","","","7"
"","4380","same-different-html-trial","22","199584","0.0-3.0-19.0","","9714-4","""careful""","""jikkurijikkuri.wav""","32","careful","RNRI","","","","","","8"
"","682","same-different-html-trial","23","207279","0.0-3.0-20.0","","9714-4","""beneficial""","""tokutoku.wav""","32","beneficial","RNAdj","","","","","","9"
"","1836","same-different-html-trial","24","216128","0.0-3.0-21.0","","9714-4","""stiff""","""gowa.wav""","32","stiff","SRI","","","","","","10"
"","3820","same-different-html-trial","25","226958","0.0-3.0-22.0","","9714-4","""disadvantaged""","""furi.wav""","32","disadvantaged","NAdj","","","","","","11"
"","618","same-different-html-trial","26","234591","0.0-3.0-23.0","","9714-4","""offended""","""kachin.wav""","32","offended","NRI","","","","","","12"
"","939","same-different-html-trial","27","242542","0.0-3.0-24.0","","9714-4","""nonchalantly""","""kero.wav""","32","nonchalantly","NRI","","","","","","13"
"","3946","same-different-html-trial","28","253501","0.0-3.0-25.0","","9714-4","""fragile""","""yawayawa.wav""","32","fragile","RNAdj","","","","","","14"
"","1641","same-different-html-trial","29","262158","0.0-3.0-26.0","","9714-4","""wobbly""","""yura.wav""","32","wobbly","SRI","","","","","","15"
"","4157","same-different-html-trial","30","273327","0.0-3.0-27.0","","9714-4","""harsh""","""koku.wav""","32","harsh","NAdj","","","","","","16"
"","1755","same-different-html-trial","31","282095","0.0-3.0-28.0","","9714-4","""hasty""","""seka.wav""","32","hasty","SRI","","","","","","17"
"","10506","same-different-html-trial","32","299614","0.0-3.0-29.0","","9714-4","""energetic""","""kibi.wav""","32","energetic","SRI","","","","","","18"
"","556","same-different-html-trial","33","307182","0.0-3.0-30.0","","9714-4","""glossy""","""tsuyatsuya.wav""","32","glossy","RI","","","","","","19"
"","489","same-different-html-trial","34","314942","0.0-3.0-31.0","","9714-4","""rude""","""zukezuke.wav""","32","rude","RI","","","","","","20"
"","6379","same-different-html-trial","35","328333","0.0-3.0-32.0","","9714-4","""clear""","""kukkirikukkiri.wav""","32","clear","RNRI","","","","","","21"
"","29387","same-different-html-trial","36","364733","0.0-3.0-33.0","","9714-4","""sturdy""","""gashigashi.wav""","32","sturdy","RNRI","","","","","","22"
"","12796","same-different-html-trial","37","384540","0.0-3.0-34.0","","9714-4","""perfect""","""batchiribatchiri.wav""","32","perfect","RNRI","","","","","","23"
"","5324","same-different-html-trial","38","396876","0.0-3.0-35.0","","9714-4","""subdued""","""jimi.wav""","32","subdued","NAdj","","","","","","24"
"","13592","same-different-html-trial","39","417485","0.0-3.0-36.0","","9714-4","""beneficial""","""tokutoku.wav""","32","beneficial","RNAdj","","","","","","25"
"","316","same-different-html-trial","40","424812","0.0-3.0-37.0","","9714-4","""glossy""","""tsuyatsuya.wav""","32","glossy","RI","","","","","","26"
"","1836","same-different-html-trial","41","433660","0.0-3.0-38.0","","9714-4","""disadvantaged""","""furi.wav""","32","disadvantaged","NAdj","","","","","","27"
"","464","same-different-html-trial","42","441136","0.0-3.0-39.0","","9714-4","""tasteless""","""yabo.wav""","32","tasteless","NAdj","","","","","","28"
"","747","same-different-html-trial","43","448893","0.0-3.0-40.0","","9714-4","""sturdy""","""gashigashi.wav""","32","sturdy","RNRI","","","","","","29"
"","425","same-different-html-trial","44","456331","0.0-3.0-41.0","","9714-4","""energetic""","""kibi.wav""","32","energetic","SRI","","","","","","30"
"","12426","same-different-html-trial","45","475772","0.0-3.0-42.0","","9714-4","""careful""","""jikkurijikkuri.wav""","32","careful","RNRI","","","","","","31"
"","699","same-different-html-trial","46","483483","0.0-3.0-43.0","","9714-4","""hasty""","""seka.wav""","32","hasty","SRI","","","","","","32"
"","972","same-different-html-trial","47","491467","0.0-3.0-44.0","","9714-4","""rude""","""zukezuke.wav""","32","rude","RI","","","","","","33"
"","622","same-different-html-trial","48","499100","0.0-3.0-45.0","","9714-4","""plump""","""potchari.wav""","32","plump","NRI","","","","","","34"
"","409","same-different-html-trial","49","506525","0.0-3.0-46.0","","9714-4","""rash""","""muchamucha.wav""","32","rash","RNAdj","","","","","","35"
"","493","same-different-html-trial","50","514029","0.0-3.0-47.0","","9714-4","""subdued""","""jimi.wav""","32","subdued","NAdj","","","","","","36"
"","15035","same-different-html-trial","51","536076","0.0-3.0-48.0","","9714-4","""suspenseful""","""harahara.wav""","32","suspenseful","RI","","","","","","37"
"","458","same-different-html-trial","52","543546","0.0-3.0-49.0","","9714-4","""harsh""","""koku.wav""","32","harsh","NAdj","","","","","","38"
"","603","same-different-html-trial","53","551163","0.0-3.0-50.0","","9714-4","""free""","""himahima.wav""","32","free","RNAdj","","","","","","39"
"","951","same-different-html-trial","54","559130","0.0-3.0-51.0","","9714-4","""stiff""","""gowa.wav""","32","stiff","SRI","","","","","","40"
"","839","same-different-html-trial","55","566987","0.0-3.0-52.0","","9714-4","""fragile""","""yawayawa.wav""","32","fragile","RNAdj","","","","","","41"
"","665","same-different-html-trial","56","574667","0.0-3.0-53.0","","9714-4","""agitated""","""hikuhiku.wav""","32","agitated","RI","","","","","","42"
"","350","same-different-html-trial","57","582027","0.0-3.0-54.0","","9714-4","""supple""","""shinnari.wav""","32","supple","NRI","","","","","","43"
"","332","same-different-html-trial","58","589371","0.0-3.0-55.0","","9714-4","""nonchalantly""","""kero.wav""","32","nonchalantly","NRI","","","","","","44"
"","461","same-different-html-trial","59","596843","0.0-3.0-56.0","","9714-4","""perfect""","""batchiribatchiri.wav""","32","perfect","RNRI","","","","","","45"
"","397","same-different-html-trial","60","604251","0.0-3.0-57.0","","9714-4","""clear""","""kukkirikukkiri.wav""","32","clear","RNRI","","","","","","46"
"","2152","same-different-html-trial","61","613418","0.0-3.0-58.0","","9714-4","""wobbly""","""yura.wav""","32","wobbly","SRI","","","","","","47"
"","623","same-different-html-trial","62","621082","0.0-3.0-59.0","","9714-4","""offended""","""kachin.wav""","32","offended","NRI","","","","","","48"
"[{""page_index"":0,""viewing_time"":5454}]","5455","instructions","63","627538","0.0-3.0-60.0","","","","","","","","","","","","",""
"","3252","same-different-html","64","632795","0.0-3.0-61.0","","9714-4","""free""","""himahima.wav""","191","free","RNAdj","same","1","T","free","Y","1"
"","10831","same-different-html","65","646633","0.0-3.0-62.0","","9714-4","""plump""","""potchari.wav""","90","plump","NRI","same","0","T","plump","Y","2"
"","511","same-different-html","66","650153","0.0-3.0-63.0","","9714-4","""free""","""yawayawa.wav""","90","fragile","RNAdj","different","1","D","free","Y","3"
"","1316","same-different-html","67","654473","0.0-3.0-64.0","","9714-4","""offended""","""seka.wav""","191","hasty","SRI","different","0","D","offended","Y","4"
"","2868","same-different-html","68","660346","0.0-3.0-65.0","","9714-4","""rude""","""himahima.wav""","90","free","RNAdj","different","1","D","rude","Y","5"
"","2779","same-different-html","69","666137","0.0-3.0-66.0","","9714-4","""beneficial""","""tokutoku.wav""","90","beneficial","RNAdj","same","0","T","beneficial","Y","6"
"","914","same-different-html","70","670058","0.0-3.0-67.0","","9714-4","""energetic""","""kibi.wav""","90","energetic","SRI","same","0","T","energetic","Y","7"
"","430","same-different-html","71","673515","0.0-3.0-68.0","","9714-4","""sturdy""","""gashigashi.wav""","191","sturdy","RNRI","same","1","T","sturdy","Y","8"
"","2063","same-different-html","72","678586","0.0-3.0-69.0","","9714-4","""careful""","""jikkurijikkuri.wav""","90","careful","RNRI","same","0","T","careful","Y","9"
"","3056","same-different-html","73","684651","0.0-3.0-70.0","","9714-4","""clear""","""kukkirikukkiri.wav""","90","clear","RNRI","same","0","T","clear","Y","10"
"","1774","same-different-html","74","689435","0.0-3.0-71.0","","9714-4","""subdued""","""kibi.wav""","191","energetic","SRI","different","0","D","subdued","Y","11"
"","2441","same-different-html","75","694890","0.0-3.0-72.0","","9714-4","""hasty""","""gowa.wav""","191","stiff","SRI","different","0","D","hasty","Y","12"
"","1518","same-different-html","76","699416","0.0-3.0-73.0","","9714-4","""supple""","""shinnari.wav""","90","supple","NRI","same","0","T","supple","Y","13"
"","1666","same-different-html","77","704090","0.0-3.0-74.0","","9714-4","""disadvantaged""","""furi.wav""","90","disadvantaged","NAdj","same","0","T","disadvantaged","Y","14"
"","1516","same-different-html","78","708968","0.0-3.0-75.0","","9714-4","""supple""","""zukezuke.wav""","90","rude","RI","different","1","D","supple","Y","15"
"","1250","same-different-html","79","713228","0.0-3.0-76.0","","9714-4","""stiff""","""gowa.wav""","191","stiff","SRI","same","1","T","stiff","Y","16"
"","1212","same-different-html","80","717449","0.0-3.0-77.0","","9714-4","""perfect""","""furi.wav""","191","disadvantaged","NAdj","different","0","D","perfect","Y","17"
"","2253","same-different-html","81","722714","0.0-3.0-78.0","","9714-4","""clear""","""shinnari.wav""","90","supple","NRI","different","1","D","clear","Y","18"
"","1391","same-different-html","82","727112","0.0-3.0-79.0","","9714-4","""harsh""","""koku.wav""","90","harsh","NAdj","same","0","T","harsh","Y","19"
"","2080","same-different-html","83","732200","0.0-3.0-80.0","","9714-4","""careful""","""muchamucha.wav""","90","rash","RNAdj","different","1","D","careful","Y","20"
"","2224","same-different-html","84","737433","0.0-3.0-81.0","","9714-4","""tasteless""","""yabo.wav""","90","tasteless","NAdj","same","0","T","tasteless","Y","21"
"","5553","same-different-html","85","745992","0.0-3.0-82.0","","9714-4","""agitated""","""hikuhiku.wav""","90","agitated","RI","same","0","T","agitated","Y","22"
"","2443","same-different-html","86","751449","0.0-3.0-83.0","","9714-4","""suspenseful""","""potchari.wav""","191","plump","NRI","different","0","D","suspenseful","Y","23"
"","4305","same-different-html","87","758760","0.0-3.0-84.0","","9714-4","""stiff""","""kero.wav""","90","nonchalantly","NRI","different","1","D","stiff","Y","24"
"","8642","same-different-html","88","770408","0.0-3.0-85.0","","9714-4","""glossy""","""tsuyatsuya.wav""","90","glossy","RI","same","0","T","glossy","Y","25"
"","1345","same-different-html","89","774761","0.0-3.0-86.0","","9714-4","""nonchalantly""","""kero.wav""","191","nonchalantly","NRI","same","1","T","nonchalantly","Y","26"
"","1678","same-different-html","90","779448","0.0-3.0-87.0","","9714-4","""hasty""","""seka.wav""","191","hasty","SRI","same","1","T","hasty","Y","27"
"","2003","same-different-html","91","784455","0.0-3.0-88.0","","9714-4","""suspenseful""","""harahara.wav""","191","suspenseful","RI","same","1","T","suspenseful","Y","28"
"","1299","same-different-html","92","788762","0.0-3.0-89.0","","9714-4","""glossy""","""kukkirikukkiri.wav""","90","clear","RNRI","different","1","D","glossy","Y","29"
"","3279","same-different-html","93","795049","0.0-3.0-90.0","","9714-4","""fragile""","""yawayawa.wav""","191","fragile","RNAdj","same","1","T","fragile","Y","30"
"","7392","same-different-html","94","805448","0.0-3.0-91.0","","9714-4","""offended""","""kachin.wav""","191","offended","NRI","same","1","T","offended","Y","31"
"","1327","same-different-html","95","809784","0.0-3.0-92.0","","9714-4","""nonchalantly""","""kachin.wav""","90","offended","NRI","different","1","D","nonchalantly","Y","32"
"","1235","same-different-html","96","814027","0.0-3.0-93.0","","9714-4","""rude""","""zukezuke.wav""","191","rude","RI","same","1","T","rude","Y","33"
"","1278","same-different-html","97","818312","0.0-3.0-94.0","","9714-4","""beneficial""","""yabo.wav""","90","tasteless","NAdj","different","1","D","beneficial","Y","34"
"","1298","same-different-html","98","822617","0.0-3.0-95.0","","9714-4","""subdued""","""jimi.wav""","191","subdued","NAdj","same","1","T","subdued","Y","35"
"","2064","same-different-html","99","827688","0.0-3.0-96.0","","9714-4","""sturdy""","""tsuyatsuya.wav""","90","glossy","RI","different","1","D","sturdy","Y","36"
"","2178","same-different-html","100","832872","0.0-3.0-97.0","","9714-4","""disadvantaged""","""yura.wav""","191","wobbly","SRI","different","0","D","disadvantaged","Y","37"
"","8291","same-different-html","101","844168","0.0-3.0-98.0","","9714-4","""wobbly""","""yura.wav""","90","wobbly","SRI","same","0","T","wobbly","Y","38"
"","625","same-different-html","102","847800","0.0-3.0-99.0","","9714-4","""perfect""","""batchiribatchiri.wav""","191","perfect","RNRI","same","1","T","perfect","Y","39"
"","450","same-different-html","103","851257","0.0-3.0-100.0","","9714-4","""wobbly""","""harahara.wav""","191","suspenseful","RI","different","0","D","wobbly","Y","40"
"","322","same-different-html","104","854584","0.0-3.0-101.0","","9714-4","""rash""","""muchamucha.wav""","191","rash","RNAdj","same","1","T","rash","Y","41"
"","3778","same-different-html","105","861368","0.0-3.0-102.0","","9714-4","""rash""","""koku.wav""","90","harsh","NAdj","different","1","D","rash","Y","42"
"","3168","same-different-html","106","867544","0.0-3.0-103.0","","9714-4","""harsh""","""hikuhiku.wav""","90","agitated","RI","different","1","D","harsh","Y","43"
"","6193","same-different-html","107","876744","0.0-3.0-104.0","","9714-4","""fragile""","""jikkurijikkuri.wav""","90","careful","RNRI","different","1","D","fragile","Y","44"
"","2544","same-different-html","108","882296","0.0-3.0-105.0","","9714-4","""agitated""","""batchiribatchiri.wav""","90","perfect","RNRI","different","1","D","agitated","Y","45"
"","3266","same-different-html","109","888568","0.0-3.0-106.0","","9714-4","""tasteless""","""tokutoku.wav""","90","beneficial","RNAdj","different","1","D","tasteless","Y","46"
"","1009","same-different-html","110","892583","0.0-3.0-107.0","","9714-4","""energetic""","""gashigashi.wav""","191","sturdy","RNRI","different","0","D","energetic","Y","47"
"","1249","same-different-html","111","896839","0.0-3.0-108.0","","9714-4","""plump""","""jimi.wav""","191","subdued","NAdj","different","0","D","plump","Y","48"
"[{""page_index"":0,""viewing_time"":25464}]","25464","instructions","112","923304","0.0-3.0-109.0","","","","","","","","","","","","",""
