"view_history","rt","trial_type","trial_index","time_elapsed","internal_node_id","responses","Id","word","sound","key_press","TrueMeaning","WordType","answer","correct","TrialType","TargetMeaning","LegalTrial","trialNum"
"[{""page_index"":0,""viewing_time"":17197}]","17198","instructions","0","17200","0.0-0.0","","","","","","","","","","","","",""
"[{""page_index"":0,""viewing_time"":2052},{""page_index"":1,""viewing_time"":3968},{""page_index"":2,""viewing_time"":1784},{""page_index"":3,""viewing_time"":8375},{""page_index"":4,""viewing_time"":73022}]","89201","instructions","1","106402","0.0-1.0","","","","","","","","","","","","",""
"","16091","survey-multi-choice","2","122500","0.0-2.0","{""Q0"":""Yes"",""Q1"":""Yes"",""Q2"":""Yes"",""Q3"":""Yes"",""Q4"":""Yes""}","","","","","","","","","","","",""
"[{""page_index"":0,""viewing_time"":1894},{""page_index"":1,""viewing_time"":8255}]","10150","instructions","3","132650","0.0-3.0-0.0","","","","","","","","","","","","",""
"","4281","same-different-html-trial","4","142955","0.0-3.0-1.0","","0","""sushi""","""prc_sushi.wav""","32","","","","","","","",""
"[{""page_index"":0,""viewing_time"":9315}]","9317","instructions","5","153274","0.0-3.0-2.0","","","","","","","","","","","","",""
"","9186","same-different-html","6","164468","0.0-3.0-3.0","","0","""sushi""","""prc_sushi.wav""","191","","","same","1","","","0",""
"[{""page_index"":0,""viewing_time"":4476}]","4476","instructions","7","169945","0.0-3.0-4.0","","","","","","","","","","","","",""
"","4317","same-different-html","8","176274","0.0-3.0-5.0","","0","""cat""","""prc_sushi.wav""","90","","","different","1","","","0",""
"[{""page_index"":0,""viewing_time"":4906},{""page_index"":1,""viewing_time"":3112}]","8018","instructions","9","185297","0.0-3.0-6.0","","","","","","","","","","","","",""
"","3080","same-different-html-trial","10","194399","0.0-3.0-7.0","","0","""thank you""","""prc_arigato.wav""","32","","","","","","","",""
"[{""page_index"":0,""viewing_time"":7251}]","7252","instructions","11","202656","0.0-3.0-8.0","","","","","","","","","","","","",""
"","3266","same-different-html","12","207930","0.0-3.0-9.0","","0","""thank you""","""prc_arigato.wav""","191","","","same","1","","","0",""
"","3025","same-different-html","13","213968","0.0-3.0-10.0","","0","""cat""","""prc_arigato.wav""","90","","","different","1","","","0",""
"[{""page_index"":0,""viewing_time"":1492},{""page_index"":1,""viewing_time"":32375}]","33867","instructions","14","248838","0.0-3.0-11.0","","","","","","","","","","","","",""
"","3034","same-different-html-trial","15","257891","0.0-3.0-12.0","","8320-1","""messy""","""gocha.wav""","32","messy","SRI","","","","","","1"
"","2684","same-different-html-trial","16","267597","0.0-3.0-13.0","","8320-1","""chubby""","""bukubuku.wav""","32","chubby","RI","","","","","","2"
"","2659","same-different-html-trial","17","277277","0.0-3.0-14.0","","8320-1","""whole""","""gosogoso.wav""","32","whole","RNRI","","","","","","3"
"","2158","same-different-html-trial","18","286457","0.0-3.0-15.0","","8320-1","""whispering""","""hiso.wav""","32","whispering","SRI","","","","","","4"
"","2624","same-different-html-trial","19","296100","0.0-3.0-16.0","","8320-1","""stiff""","""gowa.wav""","32","stiff","SRI","","","","","","5"
"","2418","same-different-html-trial","20","305542","0.0-3.0-17.0","","8320-1","""perfect""","""batchiri.wav""","32","perfect","NRI","","","","","","6"
"","2549","same-different-html-trial","21","315113","0.0-3.0-18.0","","8320-1","""disadvantaged""","""furifuri.wav""","32","disadvantaged","RNAdj","","","","","","7"
"","2233","same-different-html-trial","22","324368","0.0-3.0-19.0","","8320-1","""decisive""","""pisha.wav""","32","decisive","NRI","","","","","","8"
"","2985","same-different-html-trial","23","334376","0.0-3.0-20.0","","8320-1","""fast asleep""","""gussuri.wav""","32","fast asleep","NRI","","","","","","9"
"","2599","same-different-html-trial","24","343997","0.0-3.0-21.0","","8320-1","""energetic""","""kibikibi.wav""","32","energetic","RI","","","","","","10"
"","2837","same-different-html-trial","25","353858","0.0-3.0-22.0","","8320-1","""worn out""","""boro.wav""","32","worn out","SRI","","","","","","11"
"","3100","same-different-html-trial","26","363981","0.0-3.0-23.0","","8320-1","""clear""","""kukkirikukkiri.wav""","32","clear","RNRI","","","","","","12"
"","2655","same-different-html-trial","27","373656","0.0-3.0-24.0","","8320-1","""resolute""","""bassaribassari.wav""","32","resolute","RNRI","","","","","","13"
"","1927","same-different-html-trial","28","382611","0.0-3.0-25.0","","8320-1","""free""","""hima.wav""","32","free","NAdj","","","","","","14"
"","2715","same-different-html-trial","29","392349","0.0-3.0-26.0","","8320-1","""vulgar""","""zokuzoku.wav""","32","vulgar","RNAdj","","","","","","15"
"","2578","same-different-html-trial","30","401948","0.0-3.0-27.0","","8320-1","""sturdy""","""gashigashi.wav""","32","sturdy","RNRI","","","","","","16"
"","2370","same-different-html-trial","31","411335","0.0-3.0-28.0","","8320-1","""deficient""","""fubi.wav""","32","deficient","NAdj","","","","","","17"
"","2841","same-different-html-trial","32","421192","0.0-3.0-29.0","","8320-1","""gaudy""","""kabi.wav""","32","gaudy","NAdj","","","","","","18"
"","2008","same-different-html-trial","33","430227","0.0-3.0-30.0","","8320-1","""gaping""","""poka.wav""","32","gaping","NRI","","","","","","19"
"","2481","same-different-html-trial","34","439724","0.0-3.0-31.0","","8320-1","""suspenseful""","""harahara.wav""","32","suspenseful","RI","","","","","","20"
"","2612","same-different-html-trial","35","449362","0.0-3.0-32.0","","8320-1","""stupid""","""baka.wav""","32","stupid","NAdj","","","","","","21"
"","2380","same-different-html-trial","36","458764","0.0-3.0-33.0","","8320-1","""beneficial""","""tokutoku.wav""","32","beneficial","RNAdj","","","","","","22"
"","3272","same-different-html-trial","37","469058","0.0-3.0-34.0","","8320-1","""excessive""","""kadokado.wav""","32","excessive","RNAdj","","","","","","23"
"","3072","same-different-html-trial","38","479147","0.0-3.0-35.0","","8320-1","""humid""","""mushimushi.wav""","32","humid","RI","","","","","","24"
"","2621","same-different-html-trial","39","488789","0.0-3.0-36.0","","8320-1","""disadvantaged""","""furifuri.wav""","32","disadvantaged","RNAdj","","","","","","25"
"","2274","same-different-html-trial","40","498090","0.0-3.0-37.0","","8320-1","""worn out""","""boro.wav""","32","worn out","SRI","","","","","","26"
"","2496","same-different-html-trial","41","507612","0.0-3.0-38.0","","8320-1","""beneficial""","""tokutoku.wav""","32","beneficial","RNAdj","","","","","","27"
"","2443","same-different-html-trial","42","517073","0.0-3.0-39.0","","8320-1","""stiff""","""gowa.wav""","32","stiff","SRI","","","","","","28"
"","2651","same-different-html-trial","43","526742","0.0-3.0-40.0","","8320-1","""whole""","""gosogoso.wav""","32","whole","RNRI","","","","","","29"
"","2686","same-different-html-trial","44","536453","0.0-3.0-41.0","","8320-1","""vulgar""","""zokuzoku.wav""","32","vulgar","RNAdj","","","","","","30"
"","2440","same-different-html-trial","45","545910","0.0-3.0-42.0","","8320-1","""deficient""","""fubi.wav""","32","deficient","NAdj","","","","","","31"
"","2637","same-different-html-trial","46","555566","0.0-3.0-43.0","","8320-1","""sturdy""","""gashigashi.wav""","32","sturdy","RNRI","","","","","","32"
"","2935","same-different-html-trial","47","565529","0.0-3.0-44.0","","8320-1","""whispering""","""hiso.wav""","32","whispering","SRI","","","","","","33"
"","2626","same-different-html-trial","48","575185","0.0-3.0-45.0","","8320-1","""resolute""","""bassaribassari.wav""","32","resolute","RNRI","","","","","","34"
"","2911","same-different-html-trial","49","585121","0.0-3.0-46.0","","8320-1","""free""","""hima.wav""","32","free","NAdj","","","","","","35"
"","3739","same-different-html-trial","50","595886","0.0-3.0-47.0","","8320-1","""suspenseful""","""harahara.wav""","32","suspenseful","RI","","","","","","36"
"","2478","same-different-html-trial","51","605379","0.0-3.0-48.0","","8320-1","""gaudy""","""kabi.wav""","32","gaudy","NAdj","","","","","","37"
"","3172","same-different-html-trial","52","615574","0.0-3.0-49.0","","8320-1","""excessive""","""kadokado.wav""","32","excessive","RNAdj","","","","","","38"
"","4160","same-different-html-trial","53","626752","0.0-3.0-50.0","","8320-1","""decisive""","""pisha.wav""","32","decisive","NRI","","","","","","39"
"","2687","same-different-html-trial","54","636459","0.0-3.0-51.0","","8320-1","""perfect""","""batchiri.wav""","32","perfect","NRI","","","","","","40"
"","2696","same-different-html-trial","55","646177","0.0-3.0-52.0","","8320-1","""clear""","""kukkirikukkiri.wav""","32","clear","RNRI","","","","","","41"
"","2696","same-different-html-trial","56","655893","0.0-3.0-53.0","","8320-1","""stupid""","""baka.wav""","32","stupid","NAdj","","","","","","42"
"","2428","same-different-html-trial","57","665348","0.0-3.0-54.0","","8320-1","""fast asleep""","""gussuri.wav""","32","fast asleep","NRI","","","","","","43"
"","2509","same-different-html-trial","58","674882","0.0-3.0-55.0","","8320-1","""gaping""","""poka.wav""","32","gaping","NRI","","","","","","44"
"","2816","same-different-html-trial","59","684723","0.0-3.0-56.0","","8320-1","""humid""","""mushimushi.wav""","32","humid","RI","","","","","","45"
"","2556","same-different-html-trial","60","694302","0.0-3.0-57.0","","8320-1","""messy""","""gocha.wav""","32","messy","SRI","","","","","","46"
"","3329","same-different-html-trial","61","704649","0.0-3.0-58.0","","8320-1","""chubby""","""bukubuku.wav""","32","chubby","RI","","","","","","47"
"","5017","same-different-html-trial","62","716692","0.0-3.0-59.0","","8320-1","""energetic""","""kibikibi.wav""","32","energetic","RI","","","","","","48"
"[{""page_index"":0,""viewing_time"":35385}]","35385","instructions","63","753078","0.0-3.0-60.0","","","","","","","","","","","","",""
"","2706","same-different-html","64","757796","0.0-3.0-61.0","","8320-1","""chubby""","""fubi.wav""","90","deficient","NAdj","different","1","D","chubby","Y","1"
"","3068","same-different-html","65","763876","0.0-3.0-62.0","","8320-1","""humid""","""mushimushi.wav""","191","humid","RI","same","1","T","humid","Y","2"
"","3094","same-different-html","66","769984","0.0-3.0-63.0","","8320-1","""free""","""hima.wav""","191","free","NAdj","same","1","T","free","Y","3"
"","4086","same-different-html","67","777081","0.0-3.0-64.0","","8320-1","""sturdy""","""mushimushi.wav""","90","humid","RI","different","1","D","sturdy","Y","4"
"","3977","same-different-html","68","784073","0.0-3.0-65.0","","8320-1","""vulgar""","""hiso.wav""","90","whispering","SRI","different","1","D","vulgar","Y","5"
"","3910","same-different-html","69","790994","0.0-3.0-66.0","","8320-1","""deficient""","""tokutoku.wav""","90","beneficial","RNAdj","different","1","D","deficient","Y","6"
"","4375","same-different-html","70","798384","0.0-3.0-67.0","","8320-1","""decisive""","""kadokado.wav""","191","excessive","RNAdj","different","0","D","decisive","Y","7"
"","3041","same-different-html","71","804438","0.0-3.0-68.0","","8320-1","""vulgar""","""zokuzoku.wav""","191","vulgar","RNAdj","same","1","T","vulgar","Y","8"
"","2871","same-different-html","72","810322","0.0-3.0-69.0","","8320-1","""fast asleep""","""gussuri.wav""","191","fast asleep","NRI","same","1","T","fast asleep","Y","9"
"","2979","same-different-html","73","816315","0.0-3.0-70.0","","8320-1","""suspenseful""","""baka.wav""","90","stupid","NAdj","different","1","D","suspenseful","Y","10"
"","4657","same-different-html","74","823988","0.0-3.0-71.0","","8320-1","""whispering""","""bassaribassari.wav""","90","resolute","RNRI","different","1","D","whispering","Y","11"
"","2935","same-different-html","75","829937","0.0-3.0-72.0","","8320-1","""perfect""","""batchiri.wav""","191","perfect","NRI","same","1","T","perfect","Y","12"
"","2879","same-different-html","76","835827","0.0-3.0-73.0","","8320-1","""disadvantaged""","""kabi.wav""","90","gaudy","NAdj","different","1","D","disadvantaged","Y","13"
"","2883","same-different-html","77","841720","0.0-3.0-74.0","","8320-1","""humid""","""gosogoso.wav""","90","whole","RNRI","different","1","D","humid","Y","14"
"","3390","same-different-html","78","848124","0.0-3.0-75.0","","8320-1","""gaping""","""kukkirikukkiri.wav""","90","clear","RNRI","different","1","D","gaping","Y","15"
"","4195","same-different-html","79","855330","0.0-3.0-76.0","","8320-1","""gaudy""","""boro.wav""","191","worn out","SRI","different","0","D","gaudy","Y","16"
"","2967","same-different-html","80","861310","0.0-3.0-77.0","","8320-1","""decisive""","""pisha.wav""","191","decisive","NRI","same","1","T","decisive","Y","17"
"","2993","same-different-html","81","867312","0.0-3.0-78.0","","8320-1","""sturdy""","""gashigashi.wav""","191","sturdy","RNRI","same","1","T","sturdy","Y","18"
"","3015","same-different-html","82","873336","0.0-3.0-79.0","","8320-1","""chubby""","""bukubuku.wav""","191","chubby","RI","same","1","T","chubby","Y","19"
"","2823","same-different-html","83","879172","0.0-3.0-80.0","","8320-1","""deficient""","""fubi.wav""","191","deficient","NAdj","same","1","T","deficient","Y","20"
"","2965","same-different-html","84","885150","0.0-3.0-81.0","","8320-1","""stupid""","""baka.wav""","191","stupid","NAdj","same","1","T","stupid","Y","21"
"","2932","same-different-html","85","891096","0.0-3.0-82.0","","8320-1","""whole""","""gussuri.wav""","90","fast asleep","NRI","different","1","D","whole","Y","22"
"","2858","same-different-html","86","896963","0.0-3.0-83.0","","8320-1","""perfect""","""furifuri.wav""","90","disadvantaged","RNAdj","different","1","D","perfect","Y","23"
"","2857","same-different-html","87","902832","0.0-3.0-84.0","","8320-1","""messy""","""gashigashi.wav""","90","sturdy","RNRI","different","1","D","messy","Y","24"
"","3207","same-different-html","88","909057","0.0-3.0-85.0","","8320-1","""worn out""","""boro.wav""","90","worn out","SRI","same","0","T","worn out","Y","25"
"","3458","same-different-html","89","915528","0.0-3.0-86.0","","8320-1","""excessive""","""kibikibi.wav""","90","energetic","RI","different","1","D","excessive","Y","26"
"","3209","same-different-html","90","921751","0.0-3.0-87.0","","8320-1","""gaping""","""poka.wav""","191","gaping","NRI","same","1","T","gaping","Y","27"
"","2865","same-different-html","91","927627","0.0-3.0-88.0","","8320-1","""stiff""","""batchiri.wav""","90","perfect","NRI","different","1","D","stiff","Y","28"
"","2978","same-different-html","92","933615","0.0-3.0-89.0","","8320-1","""clear""","""kukkirikukkiri.wav""","191","clear","RNRI","same","1","T","clear","Y","29"
"","2879","same-different-html","93","939508","0.0-3.0-90.0","","8320-1","""excessive""","""kadokado.wav""","90","excessive","RNAdj","same","0","T","excessive","Y","30"
"","4803","same-different-html","94","947326","0.0-3.0-91.0","","8320-1","""fast asleep""","""bukubuku.wav""","90","chubby","RI","different","1","D","fast asleep","Y","31"
"","2908","same-different-html","95","953248","0.0-3.0-92.0","","8320-1","""clear""","""poka.wav""","90","gaping","NRI","different","1","D","clear","Y","32"
"","2966","same-different-html","96","959226","0.0-3.0-93.0","","8320-1","""energetic""","""kibikibi.wav""","191","energetic","RI","same","1","T","energetic","Y","33"
"","2809","same-different-html","97","965048","0.0-3.0-94.0","","8320-1","""suspenseful""","""harahara.wav""","90","suspenseful","RI","same","0","T","suspenseful","Y","34"
"","2848","same-different-html","98","970905","0.0-3.0-95.0","","8320-1","""messy""","""gocha.wav""","191","messy","SRI","same","1","T","messy","Y","35"
"","2834","same-different-html","99","976745","0.0-3.0-96.0","","8320-1","""stupid""","""hima.wav""","90","free","NAdj","different","1","D","stupid","Y","36"
"","2825","same-different-html","100","982586","0.0-3.0-97.0","","8320-1","""disadvantaged""","""furifuri.wav""","191","disadvantaged","RNAdj","same","1","T","disadvantaged","Y","37"
"","2834","same-different-html","101","988433","0.0-3.0-98.0","","8320-1","""resolute""","""pisha.wav""","90","decisive","NRI","different","1","D","resolute","Y","38"
"","2831","same-different-html","102","994272","0.0-3.0-99.0","","8320-1","""energetic""","""gocha.wav""","90","messy","SRI","different","1","D","energetic","Y","39"
"","2849","same-different-html","103","1000133","0.0-3.0-100.0","","8320-1","""free""","""gowa.wav""","191","stiff","SRI","different","0","D","free","Y","40"
"","3370","same-different-html","104","1006519","0.0-3.0-101.0","","8320-1","""whole""","""gosogoso.wav""","90","whole","RNRI","same","0","T","whole","Y","41"
"","2935","same-different-html","105","1012472","0.0-3.0-102.0","","8320-1","""beneficial""","""zokuzoku.wav""","191","vulgar","RNAdj","different","0","D","beneficial","Y","42"
"","2829","same-different-html","106","1018313","0.0-3.0-103.0","","8320-1","""whispering""","""hiso.wav""","191","whispering","SRI","same","1","T","whispering","Y","43"
"","3039","same-different-html","107","1024366","0.0-3.0-104.0","","8320-1","""beneficial""","""tokutoku.wav""","90","beneficial","RNAdj","same","0","T","beneficial","Y","44"
"","3556","same-different-html","108","1030936","0.0-3.0-105.0","","8320-1","""worn out""","""harahara.wav""","90","suspenseful","RI","different","1","D","worn out","Y","45"
"","2902","same-different-html","109","1036855","0.0-3.0-106.0","","8320-1","""gaudy""","""kabi.wav""","191","gaudy","NAdj","same","1","T","gaudy","Y","46"
"","2853","same-different-html","110","1042722","0.0-3.0-107.0","","8320-1","""stiff""","""gowa.wav""","191","stiff","SRI","same","1","T","stiff","Y","47"
"","2933","same-different-html","111","1048666","0.0-3.0-108.0","","8320-1","""resolute""","""bassaribassari.wav""","90","resolute","RNRI","same","0","T","resolute","Y","48"
"[{""page_index"":0,""viewing_time"":4658}]","4658","instructions","112","1054329","0.0-3.0-109.0","","","","","","","","","","","","",""
