"view_history","rt","trial_type","trial_index","time_elapsed","internal_node_id","responses","Id","word","sound","key_press","TrueMeaning","WordType","answer","correct","TrialType","TargetMeaning","LegalTrial","trialNum"
"[{""page_index"":0,""viewing_time"":2426}]","2427","instructions","0","2428","0.0-0.0","","","","","","","","","","","","",""
"[{""page_index"":0,""viewing_time"":1605},{""page_index"":1,""viewing_time"":8602},{""page_index"":2,""viewing_time"":1705},{""page_index"":3,""viewing_time"":5284},{""page_index"":4,""viewing_time"":7513}]","24710","instructions","1","27138","0.0-1.0","","","","","","","","","","","","",""
"","27474","survey-multi-choice","2","54618","0.0-2.0","{""Q0"":""Yes"",""Q1"":""Yes"",""Q2"":""Yes"",""Q3"":""Yes"",""Q4"":""Yes""}","","","","","","","","","","","",""
"[{""page_index"":0,""viewing_time"":1720},{""page_index"":1,""viewing_time"":1685}]","3405","instructions","3","58023","0.0-3.0-0.0","","","","","","","","","","","","",""
"","3010","same-different-html-trial","4","67045","0.0-3.0-1.0","","0","""sushi""","""prc_sushi.wav""","32","","","","","","","",""
"[{""page_index"":0,""viewing_time"":8897}]","8897","instructions","5","76944","0.0-3.0-2.0","","","","","","","","","","","","",""
"","11565","same-different-html","6","90511","0.0-3.0-3.0","","0","""sushi""","""prc_sushi.wav""","90","","","same","0","","","0",""
"[{""page_index"":0,""viewing_time"":2657}]","2657","instructions","7","94169","0.0-3.0-4.0","","","","","","","","","","","","",""
"","3032","same-different-html","8","99206","0.0-3.0-5.0","","0","""cat""","""prc_sushi.wav""","90","","","different","1","","","0",""
"[{""page_index"":0,""viewing_time"":2764},{""page_index"":1,""viewing_time"":1802}]","4566","instructions","9","104772","0.0-3.0-6.0","","","","","","","","","","","","",""
"","2096","same-different-html-trial","10","112876","0.0-3.0-7.0","","0","""thank you""","""prc_arigato.wav""","32","","","","","","","",""
"[{""page_index"":0,""viewing_time"":4282}]","4282","instructions","11","118158","0.0-3.0-8.0","","","","","","","","","","","","",""
"","3452","same-different-html","12","123615","0.0-3.0-9.0","","0","""thank you""","""prc_arigato.wav""","191","","","same","1","","","0",""
"","1192","same-different-html","13","127812","0.0-3.0-10.0","","0","""cat""","""prc_arigato.wav""","191","","","different","0","","","0",""
"[{""page_index"":0,""viewing_time"":1722},{""page_index"":1,""viewing_time"":6468}]","8192","instructions","14","137006","0.0-3.0-11.0","","","","","","","","","","","","",""
"","601","same-different-html-trial","15","143613","0.0-3.0-12.0","","2466-10","""crowded""","""bisshiribisshiri.wav""","32","crowded","RNRI","","","","","","1"
"","598","same-different-html-trial","16","151219","0.0-3.0-13.0","","2466-10","""tasteless""","""yaboyabo.wav""","32","tasteless","RNAdj","","","","","","2"
"","289","same-different-html-trial","17","158517","0.0-3.0-14.0","","2466-10","""pure""","""mukumuku.wav""","32","pure","RNAdj","","","","","","3"
"","244","same-different-html-trial","18","165766","0.0-3.0-15.0","","2466-10","""sudden""","""pata.wav""","32","sudden","NRI","","","","","","4"
"","254","same-different-html-trial","19","173029","0.0-3.0-16.0","","2466-10","""messy""","""gochagocha.wav""","32","messy","RI","","","","","","5"
"","395","same-different-html-trial","20","180427","0.0-3.0-17.0","","2466-10","""stiff""","""gowagowa.wav""","32","stiff","RI","","","","","","6"
"","2532","same-different-html-trial","21","189964","0.0-3.0-18.0","","2466-10","""useless""","""dame.wav""","32","useless","NAdj","","","","","","7"
"","412","same-different-html-trial","22","197379","0.0-3.0-19.0","","2466-10","""happy""","""ukiuki.wav""","32","happy","RI","","","","","","8"
"","1493","same-different-html-trial","23","205876","0.0-3.0-20.0","","2466-10","""deficient""","""fubifubi.wav""","32","deficient","RNAdj","","","","","","9"
"","279","same-different-html-trial","24","213163","0.0-3.0-21.0","","2466-10","""exact""","""kakkiri.wav""","32","exact","NRI","","","","","","10"
"","2185","same-different-html-trial","25","223181","0.0-3.0-22.0","","2466-10","""suspenseful""","""harahara.wav""","32","suspenseful","RI","","","","","","11"
"","1098","same-different-html-trial","26","231283","0.0-3.0-23.0","","2466-10","""sturdy""","""gashi.wav""","32","sturdy","NRI","","","","","","12"
"","656","same-different-html-trial","27","238948","0.0-3.0-24.0","","2466-10","""worn out""","""boro.wav""","32","worn out","SRI","","","","","","13"
"","1180","same-different-html-trial","28","247132","0.0-3.0-25.0","","2466-10","""nonchalantly""","""kerokero.wav""","32","nonchalantly","RNRI","","","","","","14"
"","6121","same-different-html-trial","29","260259","0.0-3.0-26.0","","2466-10","""shivering""","""buru.wav""","32","shivering","SRI","","","","","","15"
"","419","same-different-html-trial","30","267683","0.0-3.0-27.0","","2466-10","""vulgar""","""zoku.wav""","32","vulgar","NAdj","","","","","","16"
"","321","same-different-html-trial","31","275011","0.0-3.0-28.0","","2466-10","""perfect""","""batchiribatchiri.wav""","32","perfect","RNRI","","","","","","17"
"","386","same-different-html-trial","32","282403","0.0-3.0-29.0","","2466-10","""stupid""","""bakabaka.wav""","32","stupid","RNAdj","","","","","","18"
"","3729","same-different-html-trial","33","293139","0.0-3.0-30.0","","2466-10","""gaudy""","""kabi.wav""","32","gaudy","NAdj","","","","","","19"
"","362","same-different-html-trial","34","300507","0.0-3.0-31.0","","2466-10","""offended""","""kachin.wav""","32","offended","NRI","","","","","","20"
"","787","same-different-html-trial","35","308301","0.0-3.0-32.0","","2466-10","""fat""","""debu.wav""","32","fat","SRI","","","","","","21"
"","328","same-different-html-trial","36","315636","0.0-3.0-33.0","","2466-10","""chubby""","""buku.wav""","32","chubby","SRI","","","","","","22"
"","266","same-different-html-trial","37","322909","0.0-3.0-34.0","","2466-10","""disadvantaged""","""furi.wav""","32","disadvantaged","NAdj","","","","","","23"
"","374","same-different-html-trial","38","330291","0.0-3.0-35.0","","2466-10","""to change ocmpletely""","""garagara.wav""","32","to change ocmpletely","RNRI","","","","","","24"
"","350","same-different-html-trial","39","337645","0.0-3.0-36.0","","2466-10","""deficient""","""fubifubi.wav""","32","deficient","RNAdj","","","","","","25"
"","1024","same-different-html-trial","40","345675","0.0-3.0-37.0","","2466-10","""sudden""","""pata.wav""","32","sudden","NRI","","","","","","26"
"","1178","same-different-html-trial","41","353860","0.0-3.0-38.0","","2466-10","""tasteless""","""yaboyabo.wav""","32","tasteless","RNAdj","","","","","","27"
"","306","same-different-html-trial","42","361173","0.0-3.0-39.0","","2466-10","""happy""","""ukiuki.wav""","32","happy","RI","","","","","","28"
"","460","same-different-html-trial","43","368638","0.0-3.0-40.0","","2466-10","""chubby""","""buku.wav""","32","chubby","SRI","","","","","","29"
"","517","same-different-html-trial","44","376164","0.0-3.0-41.0","","2466-10","""pure""","""mukumuku.wav""","32","pure","RNAdj","","","","","","30"
"","907","same-different-html-trial","45","384078","0.0-3.0-42.0","","2466-10","""shivering""","""buru.wav""","32","shivering","SRI","","","","","","31"
"","528","same-different-html-trial","46","391612","0.0-3.0-43.0","","2466-10","""stupid""","""bakabaka.wav""","32","stupid","RNAdj","","","","","","32"
"","575","same-different-html-trial","47","399199","0.0-3.0-44.0","","2466-10","""to change ocmpletely""","""garagara.wav""","32","to change ocmpletely","RNRI","","","","","","33"
"","1853","same-different-html-trial","48","408060","0.0-3.0-45.0","","2466-10","""vulgar""","""zoku.wav""","32","vulgar","NAdj","","","","","","34"
"","1378","same-different-html-trial","49","416444","0.0-3.0-46.0","","2466-10","""nonchalantly""","""kerokero.wav""","32","nonchalantly","RNRI","","","","","","35"
"","3981","same-different-html-trial","50","427429","0.0-3.0-47.0","","2466-10","""disadvantaged""","""furi.wav""","32","disadvantaged","NAdj","","","","","","36"
"","930","same-different-html-trial","51","435364","0.0-3.0-48.0","","2466-10","""fat""","""debu.wav""","32","fat","SRI","","","","","","37"
"","1002","same-different-html-trial","52","443372","0.0-3.0-49.0","","2466-10","""sturdy""","""gashi.wav""","32","sturdy","NRI","","","","","","38"
"","774","same-different-html-trial","53","451156","0.0-3.0-50.0","","2466-10","""offended""","""kachin.wav""","32","offended","NRI","","","","","","39"
"","1074","same-different-html-trial","54","459236","0.0-3.0-51.0","","2466-10","""worn out""","""boro.wav""","32","worn out","SRI","","","","","","40"
"","1392","same-different-html-trial","55","467636","0.0-3.0-52.0","","2466-10","""messy""","""gochagocha.wav""","32","messy","RI","","","","","","41"
"","476","same-different-html-trial","56","475117","0.0-3.0-53.0","","2466-10","""gaudy""","""kabi.wav""","32","gaudy","NAdj","","","","","","42"
"","6532","same-different-html-trial","57","488652","0.0-3.0-54.0","","2466-10","""suspenseful""","""harahara.wav""","32","suspenseful","RI","","","","","","43"
"","33312","same-different-html-trial","58","528973","0.0-3.0-55.0","","2466-10","""stiff""","""gowagowa.wav""","32","stiff","RI","","","","","","44"
"","2062","same-different-html-trial","59","538043","0.0-3.0-56.0","","2466-10","""useless""","""dame.wav""","32","useless","NAdj","","","","","","45"
"","1465","same-different-html-trial","60","546516","0.0-3.0-57.0","","2466-10","""exact""","""kakkiri.wav""","32","exact","NRI","","","","","","46"
"","2231","same-different-html-trial","61","555757","0.0-3.0-58.0","","2466-10","""crowded""","""bisshiribisshiri.wav""","32","crowded","RNRI","","","","","","47"
"","1826","same-different-html-trial","62","564590","0.0-3.0-59.0","","2466-10","""perfect""","""batchiribatchiri.wav""","32","perfect","RNRI","","","","","","48"
"[{""page_index"":0,""viewing_time"":9228}]","9230","instructions","63","574820","0.0-3.0-60.0","","","","","","","","","","","","",""
"","1462","same-different-html","64","578284","0.0-3.0-61.0","","2466-10","""fat""","""kachin.wav""","90","offended","NRI","different","1","D","fat","Y","1"
"","1453","same-different-html","65","582740","0.0-3.0-62.0","","2466-10","""offended""","""kachin.wav""","90","offended","NRI","same","0","T","offended","Y","2"
"","1863","same-different-html","66","587605","0.0-3.0-63.0","","2466-10","""sturdy""","""mukumuku.wav""","191","pure","RNAdj","different","0","D","sturdy","Y","3"
"","1676","same-different-html","67","592284","0.0-3.0-64.0","","2466-10","""disadvantaged""","""gowagowa.wav""","191","stiff","RI","different","0","D","disadvantaged","Y","4"
"","2413","same-different-html","68","597700","0.0-3.0-65.0","","2466-10","""useless""","""dame.wav""","191","useless","NAdj","same","1","T","useless","Y","5"
"","1255","same-different-html","69","601963","0.0-3.0-66.0","","2466-10","""useless""","""pata.wav""","90","sudden","NRI","different","1","D","useless","Y","6"
"","1939","same-different-html","70","606907","0.0-3.0-67.0","","2466-10","""to change ocmpletely""","""garagara.wav""","191","to change ocmpletely","RNRI","same","1","T","to change ocmpletely","Y","7"
"","982","same-different-html","71","610892","0.0-3.0-68.0","","2466-10","""suspenseful""","""kerokero.wav""","90","nonchalantly","RNRI","different","1","D","suspenseful","Y","8"
"","269","same-different-html","72","614164","0.0-3.0-69.0","","2466-10","""messy""","""dame.wav""","191","useless","NAdj","different","0","D","messy","Y","9"
"","1331","same-different-html","73","618499","0.0-3.0-70.0","","2466-10","""happy""","""buku.wav""","90","chubby","SRI","different","1","D","happy","Y","10"
"","1582","same-different-html","74","623085","0.0-3.0-71.0","","2466-10","""deficient""","""zoku.wav""","191","vulgar","NAdj","different","0","D","deficient","Y","11"
"","1385","same-different-html","75","627476","0.0-3.0-72.0","","2466-10","""nonchalantly""","""furi.wav""","90","disadvantaged","NAdj","different","1","D","nonchalantly","Y","12"
"","1871","same-different-html","76","632348","0.0-3.0-73.0","","2466-10","""chubby""","""batchiribatchiri.wav""","191","perfect","RNRI","different","0","D","chubby","Y","13"
"","2244","same-different-html","77","637596","0.0-3.0-74.0","","2466-10","""happy""","""ukiuki.wav""","191","happy","RI","same","1","T","happy","Y","14"
"","2005","same-different-html","78","642604","0.0-3.0-75.0","","2466-10","""exact""","""kakkiri.wav""","90","exact","NRI","same","0","T","exact","Y","15"
"","2047","same-different-html","79","647661","0.0-3.0-76.0","","2466-10","""gaudy""","""yaboyabo.wav""","191","tasteless","RNAdj","different","0","D","gaudy","Y","16"
"","1139","same-different-html","80","651804","0.0-3.0-77.0","","2466-10","""gaudy""","""kabi.wav""","90","gaudy","NAdj","same","0","T","gaudy","Y","17"
"","1644","same-different-html","81","656451","0.0-3.0-78.0","","2466-10","""tasteless""","""yaboyabo.wav""","90","tasteless","RNAdj","same","0","T","tasteless","Y","18"
"","1884","same-different-html","82","661340","0.0-3.0-79.0","","2466-10","""pure""","""debu.wav""","191","fat","SRI","different","0","D","pure","Y","19"
"","1931","same-different-html","83","666276","0.0-3.0-80.0","","2466-10","""perfect""","""buru.wav""","90","shivering","SRI","different","1","D","perfect","Y","20"
"","2829","same-different-html","84","672107","0.0-3.0-81.0","","2466-10","""stupid""","""ukiuki.wav""","90","happy","RI","different","1","D","stupid","Y","21"
"","2429","same-different-html","85","677539","0.0-3.0-82.0","","2466-10","""to change ocmpletely""","""harahara.wav""","191","suspenseful","RI","different","0","D","to change ocmpletely","Y","22"
"","3220","same-different-html","86","683763","0.0-3.0-83.0","","2466-10","""sudden""","""fubifubi.wav""","90","deficient","RNAdj","different","1","D","sudden","Y","23"
"","1844","same-different-html","87","688612","0.0-3.0-84.0","","2466-10","""shivering""","""gashi.wav""","191","sturdy","NRI","different","0","D","shivering","Y","24"
"","1964","same-different-html","88","693581","0.0-3.0-85.0","","2466-10","""nonchalantly""","""kerokero.wav""","191","nonchalantly","RNRI","same","1","T","nonchalantly","Y","25"
"","1689","same-different-html","89","698275","0.0-3.0-86.0","","2466-10","""fat""","""debu.wav""","191","fat","SRI","same","1","T","fat","Y","26"
"","2366","same-different-html","90","703646","0.0-3.0-87.0","","2466-10","""offended""","""boro.wav""","90","worn out","SRI","different","1","D","offended","Y","27"
"","1480","same-different-html","91","708130","0.0-3.0-88.0","","2466-10","""sudden""","""pata.wav""","191","sudden","NRI","same","1","T","sudden","Y","28"
"","1591","same-different-html","92","712723","0.0-3.0-89.0","","2466-10","""pure""","""mukumuku.wav""","90","pure","RNAdj","same","0","T","pure","Y","29"
"","2018","same-different-html","93","717747","0.0-3.0-90.0","","2466-10","""crowded""","""kakkiri.wav""","191","exact","NRI","different","0","D","crowded","Y","30"
"","1989","same-different-html","94","722739","0.0-3.0-91.0","","2466-10","""vulgar""","""zoku.wav""","90","vulgar","NAdj","same","0","T","vulgar","Y","31"
"","1821","same-different-html","95","727563","0.0-3.0-92.0","","2466-10","""worn out""","""kabi.wav""","90","gaudy","NAdj","different","1","D","worn out","Y","32"
"","1404","same-different-html","96","731971","0.0-3.0-93.0","","2466-10","""sturdy""","""gashi.wav""","90","sturdy","NRI","same","0","T","sturdy","Y","33"
"","2627","same-different-html","97","737602","0.0-3.0-94.0","","2466-10","""worn out""","""boro.wav""","191","worn out","SRI","same","1","T","worn out","Y","34"
"","1828","same-different-html","98","742437","0.0-3.0-95.0","","2466-10","""stiff""","""gowagowa.wav""","191","stiff","RI","same","1","T","stiff","Y","35"
"","1970","same-different-html","99","747410","0.0-3.0-96.0","","2466-10","""disadvantaged""","""furi.wav""","191","disadvantaged","NAdj","same","1","T","disadvantaged","Y","36"
"","1622","same-different-html","100","752035","0.0-3.0-97.0","","2466-10","""stupid""","""bakabaka.wav""","191","stupid","RNAdj","same","1","T","stupid","Y","37"
"","1662","same-different-html","101","756700","0.0-3.0-98.0","","2466-10","""exact""","""garagara.wav""","90","to change ocmpletely","RNRI","different","1","D","exact","Y","38"
"","1216","same-different-html","102","760924","0.0-3.0-99.0","","2466-10","""shivering""","""buru.wav""","191","shivering","SRI","same","1","T","shivering","Y","39"
"","1204","same-different-html","103","765131","0.0-3.0-100.0","","2466-10","""vulgar""","""bakabaka.wav""","191","stupid","RNAdj","different","0","D","vulgar","Y","40"
"","2031","same-different-html","104","770164","0.0-3.0-101.0","","2466-10","""chubby""","""buku.wav""","191","chubby","SRI","same","1","T","chubby","Y","41"
"","1788","same-different-html","105","774956","0.0-3.0-102.0","","2466-10","""tasteless""","""gochagocha.wav""","90","messy","RI","different","1","D","tasteless","Y","42"
"","1211","same-different-html","106","779171","0.0-3.0-103.0","","2466-10","""perfect""","""batchiribatchiri.wav""","191","perfect","RNRI","same","1","T","perfect","Y","43"
"","2357","same-different-html","107","784534","0.0-3.0-104.0","","2466-10","""messy""","""gochagocha.wav""","191","messy","RI","same","1","T","messy","Y","44"
"","2675","same-different-html","108","790212","0.0-3.0-105.0","","2466-10","""stiff""","""bisshiribisshiri.wav""","90","crowded","RNRI","different","1","D","stiff","Y","45"
"","1642","same-different-html","109","794860","0.0-3.0-106.0","","2466-10","""crowded""","""bisshiribisshiri.wav""","191","crowded","RNRI","same","1","T","crowded","Y","46"
"","1348","same-different-html","110","799212","0.0-3.0-107.0","","2466-10","""deficient""","""fubifubi.wav""","90","deficient","RNAdj","same","0","T","deficient","Y","47"
"","2308","same-different-html","111","804523","0.0-3.0-108.0","","2466-10","""suspenseful""","""harahara.wav""","90","suspenseful","RI","same","0","T","suspenseful","Y","48"
"[{""page_index"":0,""viewing_time"":3096}]","3097","instructions","112","808620","0.0-3.0-109.0","","","","","","","","","","","","",""
