"view_history","rt","trial_type","trial_index","time_elapsed","internal_node_id","responses","Id","word","sound","key_press","TrueMeaning","WordType","answer","correct","TrialType","TargetMeaning","LegalTrial","trialNum"
"[{""page_index"":0,""viewing_time"":13738}]","13738","instructions","0","13739","0.0-0.0","","","","","","","","","","","","",""
"[{""page_index"":0,""viewing_time"":1433},{""page_index"":1,""viewing_time"":1651},{""page_index"":2,""viewing_time"":2651},{""page_index"":3,""viewing_time"":1496},{""page_index"":4,""viewing_time"":13446}]","20677","instructions","1","34417","0.0-1.0","","","","","","","","","","","","",""
"","8048","survey-multi-choice","2","42470","0.0-2.0","{""Q0"":""Yes"",""Q1"":""Yes"",""Q2"":""Yes"",""Q3"":""Yes"",""Q4"":""Yes""}","","","","","","","","","","","",""
"[{""page_index"":0,""viewing_time"":1196},{""page_index"":1,""viewing_time"":1563}]","2759","instructions","3","45231","0.0-3.0-0.0","","","","","","","","","","","","",""
"","2235","same-different-html-trial","4","53472","0.0-3.0-1.0","","0","""sushi""","""prc_sushi.wav""","32","","","","","","","",""
"[{""page_index"":0,""viewing_time"":1544}]","1544","instructions","5","56017","0.0-3.0-2.0","","","","","","","","","","","","",""
"","15268","same-different-html","6","73288","0.0-3.0-3.0","","0","""sushi""","""prc_sushi.wav""","90","","","same","0","","","0",""
"[{""page_index"":0,""viewing_time"":6231}]","6231","instructions","7","80519","0.0-3.0-4.0","","","","","","","","","","","","",""
"","3302","same-different-html","8","85824","0.0-3.0-5.0","","0","""cat""","""prc_sushi.wav""","90","","","different","1","","","0",""
"[{""page_index"":0,""viewing_time"":2326},{""page_index"":1,""viewing_time"":976}]","3302","instructions","9","90127","0.0-3.0-6.0","","","","","","","","","","","","",""
"","2078","same-different-html-trial","10","98208","0.0-3.0-7.0","","0","""thank you""","""prc_arigato.wav""","32","","","","","","","",""
"[{""page_index"":0,""viewing_time"":1205}]","1205","instructions","11","100413","0.0-3.0-8.0","","","","","","","","","","","","",""
"","4713","same-different-html","12","107128","0.0-3.0-9.0","","0","""thank you""","""prc_arigato.wav""","191","","","same","1","","","0",""
"","3437","same-different-html","13","113568","0.0-3.0-10.0","","0","""cat""","""prc_arigato.wav""","90","","","different","1","","","0",""
"[{""page_index"":0,""viewing_time"":1499},{""page_index"":1,""viewing_time"":1019}]","2518","instructions","14","117088","0.0-3.0-11.0","","","","","","","","","","","","",""
"","1320","same-different-html-trial","15","124409","0.0-3.0-12.0","","9597-8","""stupid""","""bakabaka.wav""","32","stupid","RNAdj","","","","","","1"
"","1028","same-different-html-trial","16","132440","0.0-3.0-13.0","","9597-8","""chubby""","""buku.wav""","32","chubby","SRI","","","","","","2"
"","4109","same-different-html-trial","17","143551","0.0-3.0-14.0","","9597-8","""stiff""","""gowa.wav""","32","stiff","SRI","","","","","","3"
"","892","same-different-html-trial","18","151449","0.0-3.0-15.0","","9597-8","""sudden""","""patapata.wav""","32","sudden","RNRI","","","","","","4"
"","964","same-different-html-trial","19","159416","0.0-3.0-16.0","","9597-8","""comfortable""","""rakuraku.wav""","32","comfortable","RNAdj","","","","","","5"
"","2370","same-different-html-trial","20","168791","0.0-3.0-17.0","","9597-8","""whispering""","""hiso.wav""","32","whispering","SRI","","","","","","6"
"","3998","same-different-html-trial","21","179793","0.0-3.0-18.0","","9597-8","""smooth""","""nopperi.wav""","32","smooth","NRI","","","","","","7"
"","1260","same-different-html-trial","22","188055","0.0-3.0-19.0","","9597-8","""suspenseful""","""harahara.wav""","32","suspenseful","RI","","","","","","8"
"","753","same-different-html-trial","23","195815","0.0-3.0-20.0","","9597-8","""happy""","""uki.wav""","32","happy","SRI","","","","","","9"
"","1797","same-different-html-trial","24","204615","0.0-3.0-21.0","","9597-8","""sullen""","""musu.wav""","32","sullen","NRI","","","","","","10"
"","4988","same-different-html-trial","25","216607","0.0-3.0-22.0","","9597-8","""hesitant""","""mojimoji.wav""","32","hesitant","RI","","","","","","11"
"","2022","same-different-html-trial","26","225631","0.0-3.0-23.0","","9597-8","""offended""","""kachinkachin.wav""","32","offended","RNRI","","","","","","12"
"","9614","same-different-html-trial","27","242247","0.0-3.0-24.0","","9597-8","""subdued""","""jimijimi.wav""","32","subdued","RNAdj","","","","","","13"
"","2358","same-different-html-trial","28","251607","0.0-3.0-25.0","","9597-8","""free""","""himahima.wav""","32","free","RNAdj","","","","","","14"
"","798","same-different-html-trial","29","259408","0.0-3.0-26.0","","9597-8","""messy""","""gochagocha.wav""","32","messy","RI","","","","","","15"
"","4741","same-different-html-trial","30","271152","0.0-3.0-27.0","","9597-8","""rare""","""mare.wav""","32","rare","NAdj","","","","","","16"
"","6975","same-different-html-trial","31","285135","0.0-3.0-28.0","","9597-8","""plump""","""potchari.wav""","32","plump","NRI","","","","","","17"
"","15684","same-different-html-trial","32","307823","0.0-3.0-29.0","","9597-8","""fragile""","""yawa.wav""","32","fragile","NAdj","","","","","","18"
"","1133","same-different-html-trial","33","315959","0.0-3.0-30.0","","9597-8","""careful""","""jikkuri.wav""","32","careful","NRI","","","","","","19"
"","1429","same-different-html-trial","34","324391","0.0-3.0-31.0","","9597-8","""supple""","""shinnarishinnari.wav""","32","supple","RNRI","","","","","","20"
"","8808","same-different-html-trial","35","340199","0.0-3.0-32.0","","9597-8","""deficient""","""fubi.wav""","32","deficient","NAdj","","","","","","21"
"","3310","same-different-html-trial","36","350511","0.0-3.0-33.0","","9597-8","""decisive""","""pishapisha.wav""","32","decisive","RNRI","","","","","","22"
"","503","same-different-html-trial","37","358016","0.0-3.0-34.0","","9597-8","""rash""","""mucha.wav""","32","rash","NAdj","","","","","","23"
"","1374","same-different-html-trial","38","366391","0.0-3.0-35.0","","9597-8","""shivering""","""buruburu.wav""","32","shivering","RI","","","","","","24"
"","4292","same-different-html-trial","39","377687","0.0-3.0-36.0","","9597-8","""rare""","""mare.wav""","32","rare","NAdj","","","","","","25"
"","853","same-different-html-trial","40","385543","0.0-3.0-37.0","","9597-8","""chubby""","""buku.wav""","32","chubby","SRI","","","","","","26"
"","1213","same-different-html-trial","41","393759","0.0-3.0-38.0","","9597-8","""messy""","""gochagocha.wav""","32","messy","RI","","","","","","27"
"","2229","same-different-html-trial","42","402991","0.0-3.0-39.0","","9597-8","""free""","""himahima.wav""","32","free","RNAdj","","","","","","28"
"","1179","same-different-html-trial","43","411174","0.0-3.0-40.0","","9597-8","""stiff""","""gowa.wav""","32","stiff","SRI","","","","","","29"
"","2799","same-different-html-trial","44","420975","0.0-3.0-41.0","","9597-8","""whispering""","""hiso.wav""","32","whispering","SRI","","","","","","30"
"","8486","same-different-html-trial","45","436463","0.0-3.0-42.0","","9597-8","""deficient""","""fubi.wav""","32","deficient","NAdj","","","","","","31"
"","8398","same-different-html-trial","46","451864","0.0-3.0-43.0","","9597-8","""stupid""","""bakabaka.wav""","32","stupid","RNAdj","","","","","","32"
"","7550","same-different-html-trial","47","466415","0.0-3.0-44.0","","9597-8","""fragile""","""yawa.wav""","32","fragile","NAdj","","","","","","33"
"","9663","same-different-html-trial","48","483079","0.0-3.0-45.0","","9597-8","""rash""","""mucha.wav""","32","rash","NAdj","","","","","","34"
"","20781","same-different-html-trial","49","510862","0.0-3.0-46.0","","9597-8","""decisive""","""pishapisha.wav""","32","decisive","RNRI","","","","","","35"
"","2477","same-different-html-trial","50","520343","0.0-3.0-47.0","","9597-8","""happy""","""uki.wav""","32","happy","SRI","","","","","","36"
"","1174","same-different-html-trial","51","528518","0.0-3.0-48.0","","9597-8","""offended""","""kachinkachin.wav""","32","offended","RNRI","","","","","","37"
"","20287","same-different-html-trial","52","555807","0.0-3.0-49.0","","9597-8","""suspenseful""","""harahara.wav""","32","suspenseful","RI","","","","","","38"
"","5981","same-different-html-trial","53","568790","0.0-3.0-50.0","","9597-8","""comfortable""","""rakuraku.wav""","32","comfortable","RNAdj","","","","","","39"
"","653","same-different-html-trial","54","576446","0.0-3.0-51.0","","9597-8","""careful""","""jikkuri.wav""","32","careful","NRI","","","","","","40"
"","24133","same-different-html-trial","55","607582","0.0-3.0-52.0","","9597-8","""sudden""","""patapata.wav""","32","sudden","RNRI","","","","","","41"
"","931","same-different-html-trial","56","615518","0.0-3.0-53.0","","9597-8","""smooth""","""nopperi.wav""","32","smooth","NRI","","","","","","42"
"","2069","same-different-html-trial","57","624590","0.0-3.0-54.0","","9597-8","""hesitant""","""mojimoji.wav""","32","hesitant","RI","","","","","","43"
"","388","same-different-html-trial","58","631982","0.0-3.0-55.0","","9597-8","""plump""","""potchari.wav""","32","plump","NRI","","","","","","44"
"","31","same-different-html-trial","59","639015","0.0-3.0-56.0","","9597-8","""supple""","""shinnarishinnari.wav""","32","supple","RNRI","","","","","","45"
"","10397","same-different-html-trial","60","656414","0.0-3.0-57.0","","9597-8","""shivering""","""buruburu.wav""","32","shivering","RI","","","","","","46"
"","1526","same-different-html-trial","61","664942","0.0-3.0-58.0","","9597-8","""sullen""","""musu.wav""","32","sullen","NRI","","","","","","47"
"","12401","same-different-html-trial","62","684350","0.0-3.0-59.0","","9597-8","""subdued""","""jimijimi.wav""","32","subdued","RNAdj","","","","","","48"
"[{""page_index"":0,""viewing_time"":2982}]","2982","instructions","63","688332","0.0-3.0-60.0","","","","","","","","","","","","",""
"","5553","same-different-html","64","695888","0.0-3.0-61.0","","9597-8","""plump""","""potchari.wav""","90","plump","NRI","same","0","T","plump","Y","1"
"","3388","same-different-html","65","702277","0.0-3.0-62.0","","9597-8","""careful""","""buku.wav""","90","chubby","SRI","different","1","D","careful","Y","2"
"","6000","same-different-html","66","711279","0.0-3.0-63.0","","9597-8","""decisive""","""mucha.wav""","191","rash","NAdj","different","0","D","decisive","Y","3"
"","6640","same-different-html","67","720919","0.0-3.0-64.0","","9597-8","""stupid""","""rakuraku.wav""","90","comfortable","RNAdj","different","1","D","stupid","Y","4"
"","3175","same-different-html","68","727094","0.0-3.0-65.0","","9597-8","""smooth""","""nopperi.wav""","90","smooth","NRI","same","0","T","smooth","Y","5"
"","6631","same-different-html","69","737494","0.0-3.0-66.0","","9597-8","""messy""","""gochagocha.wav""","90","messy","RI","same","0","T","messy","Y","6"
"","5109","same-different-html","70","745606","0.0-3.0-67.0","","9597-8","""rare""","""jimijimi.wav""","191","subdued","RNAdj","different","0","D","rare","Y","7"
"","6294","same-different-html","71","754903","0.0-3.0-68.0","","9597-8","""offended""","""patapata.wav""","90","sudden","RNRI","different","1","D","offended","Y","8"
"","4199","same-different-html","72","762103","0.0-3.0-69.0","","9597-8","""shivering""","""buruburu.wav""","191","shivering","RI","same","1","T","shivering","Y","9"
"","4470","same-different-html","73","769573","0.0-3.0-70.0","","9597-8","""comfortable""","""rakuraku.wav""","191","comfortable","RNAdj","same","1","T","comfortable","Y","10"
"","4055","same-different-html","74","776630","0.0-3.0-71.0","","9597-8","""shivering""","""fubi.wav""","90","deficient","NAdj","different","1","D","shivering","Y","11"
"","11357","same-different-html","75","790990","0.0-3.0-72.0","","9597-8","""happy""","""uki.wav""","90","happy","SRI","same","0","T","happy","Y","12"
"","15047","same-different-html","76","809038","0.0-3.0-73.0","","9597-8","""chubby""","""buku.wav""","191","chubby","SRI","same","1","T","chubby","Y","13"
"","3196","same-different-html","77","815237","0.0-3.0-74.0","","9597-8","""fragile""","""hiso.wav""","90","whispering","SRI","different","1","D","fragile","Y","14"
"","5591","same-different-html","78","823831","0.0-3.0-75.0","","9597-8","""suspenseful""","""harahara.wav""","191","suspenseful","RI","same","1","T","suspenseful","Y","15"
"","4695","same-different-html","79","831527","0.0-3.0-76.0","","9597-8","""sudden""","""patapata.wav""","191","sudden","RNRI","same","1","T","sudden","Y","16"
"","3973","same-different-html","80","838502","0.0-3.0-77.0","","9597-8","""whispering""","""shinnarishinnari.wav""","191","supple","RNRI","different","0","D","whispering","Y","17"
"","4511","same-different-html","81","846014","0.0-3.0-78.0","","9597-8","""offended""","""kachinkachin.wav""","191","offended","RNRI","same","1","T","offended","Y","18"
"","16573","same-different-html","82","865590","0.0-3.0-79.0","","9597-8","""rare""","""mare.wav""","90","rare","NAdj","same","0","T","rare","Y","19"
"","4064","same-different-html","83","872654","0.0-3.0-80.0","","9597-8","""hesitant""","""bakabaka.wav""","191","stupid","RNAdj","different","0","D","hesitant","Y","20"
"","7918","same-different-html","84","883573","0.0-3.0-81.0","","9597-8","""deficient""","""yawa.wav""","191","fragile","NAdj","different","0","D","deficient","Y","21"
"","3632","same-different-html","85","890205","0.0-3.0-82.0","","9597-8","""stupid""","""bakabaka.wav""","191","stupid","RNAdj","same","1","T","stupid","Y","22"
"","6952","same-different-html","86","900158","0.0-3.0-83.0","","9597-8","""sullen""","""jikkuri.wav""","191","careful","NRI","different","0","D","sullen","Y","23"
"","5142","same-different-html","87","908302","0.0-3.0-84.0","","9597-8","""smooth""","""gochagocha.wav""","191","messy","RI","different","0","D","smooth","Y","24"
"","2966","same-different-html","88","914269","0.0-3.0-85.0","","9597-8","""messy""","""himahima.wav""","90","free","RNAdj","different","1","D","messy","Y","25"
"","3649","same-different-html","89","920919","0.0-3.0-86.0","","9597-8","""comfortable""","""harahara.wav""","191","suspenseful","RI","different","0","D","comfortable","Y","26"
"","4198","same-different-html","90","928117","0.0-3.0-87.0","","9597-8","""supple""","""mare.wav""","90","rare","NAdj","different","1","D","supple","Y","27"
"","5198","same-different-html","91","936317","0.0-3.0-88.0","","9597-8","""free""","""musu.wav""","90","sullen","NRI","different","1","D","free","Y","28"
"","5039","same-different-html","92","944357","0.0-3.0-89.0","","9597-8","""supple""","""shinnarishinnari.wav""","90","supple","RNRI","same","0","T","supple","Y","29"
"","3375","same-different-html","93","950733","0.0-3.0-90.0","","9597-8","""chubby""","""potchari.wav""","90","plump","NRI","different","1","D","chubby","Y","30"
"","3766","same-different-html","94","957501","0.0-3.0-91.0","","9597-8","""whispering""","""hiso.wav""","90","whispering","SRI","same","0","T","whispering","Y","31"
"","1543","same-different-html","95","962045","0.0-3.0-92.0","","9597-8","""deficient""","""fubi.wav""","191","deficient","NAdj","same","1","T","deficient","Y","32"
"","1327","same-different-html","96","966373","0.0-3.0-93.0","","9597-8","""sudden""","""kachinkachin.wav""","191","offended","RNRI","different","0","D","sudden","Y","33"
"","2607","same-different-html","97","971982","0.0-3.0-94.0","","9597-8","""subdued""","""jimijimi.wav""","191","subdued","RNAdj","same","1","T","subdued","Y","34"
"","1789","same-different-html","98","976773","0.0-3.0-95.0","","9597-8","""stiff""","""gowa.wav""","191","stiff","SRI","same","1","T","stiff","Y","35"
"","1359","same-different-html","99","981133","0.0-3.0-96.0","","9597-8","""rash""","""mucha.wav""","90","rash","NAdj","same","0","T","rash","Y","36"
"","1486","same-different-html","100","985621","0.0-3.0-97.0","","9597-8","""careful""","""jikkuri.wav""","191","careful","NRI","same","1","T","careful","Y","37"
"","3854","same-different-html","101","992477","0.0-3.0-98.0","","9597-8","""plump""","""gowa.wav""","191","stiff","SRI","different","0","D","plump","Y","38"
"","10886","same-different-html","102","1006365","0.0-3.0-99.0","","9597-8","""decisive""","""pishapisha.wav""","90","decisive","RNRI","same","0","T","decisive","Y","39"
"","982","same-different-html","103","1010349","0.0-3.0-100.0","","9597-8","""stiff""","""uki.wav""","90","happy","SRI","different","1","D","stiff","Y","40"
"","1351","same-different-html","104","1014701","0.0-3.0-101.0","","9597-8","""free""","""himahima.wav""","191","free","RNAdj","same","1","T","free","Y","41"
"","2272","same-different-html","105","1019973","0.0-3.0-102.0","","9597-8","""subdued""","""nopperi.wav""","90","smooth","NRI","different","1","D","subdued","Y","42"
"","3825","same-different-html","106","1026798","0.0-3.0-103.0","","9597-8","""fragile""","""yawa.wav""","90","fragile","NAdj","same","0","T","fragile","Y","43"
"","639","same-different-html","107","1030437","0.0-3.0-104.0","","9597-8","""rash""","""pishapisha.wav""","90","decisive","RNRI","different","1","D","rash","Y","44"
"","3663","same-different-html","108","1037101","0.0-3.0-105.0","","9597-8","""happy""","""mojimoji.wav""","90","hesitant","RI","different","1","D","happy","Y","45"
"","1239","same-different-html","109","1041342","0.0-3.0-106.0","","9597-8","""hesitant""","""mojimoji.wav""","90","hesitant","RI","same","0","T","hesitant","Y","46"
"","3197","same-different-html","110","1047541","0.0-3.0-107.0","","9597-8","""sullen""","""musu.wav""","90","sullen","NRI","same","0","T","sullen","Y","47"
"","1679","same-different-html","111","1052222","0.0-3.0-108.0","","9597-8","""suspenseful""","""buruburu.wav""","191","shivering","RI","different","0","D","suspenseful","Y","48"
"[{""page_index"":0,""viewing_time"":46903}]","46903","instructions","112","1100125","0.0-3.0-109.0","","","","","","","","","","","","",""
