"view_history","rt","trial_type","trial_index","time_elapsed","internal_node_id","responses","Id","word","sound","key_press","TrueMeaning","WordType","answer","correct","TrialType","TargetMeaning","LegalTrial","trialNum"
"[{""page_index"":0,""viewing_time"":1917}]","1918","instructions","0","1924","0.0-0.0","","","","","","","","","","","","",""
"[{""page_index"":0,""viewing_time"":1391},{""page_index"":1,""viewing_time"":3039},{""page_index"":2,""viewing_time"":1785},{""page_index"":3,""viewing_time"":5123},{""page_index"":4,""viewing_time"":16379}]","27718","instructions","1","29645","0.0-1.0","","","","","","","","","","","","",""
"","8239","survey-multi-choice","2","37909","0.0-2.0","{""Q0"":""Yes"",""Q1"":""Yes"",""Q2"":""Yes"",""Q3"":""Yes"",""Q4"":""Yes""}","","","","","","","","","","","",""
"[{""page_index"":0,""viewing_time"":1795},{""page_index"":1,""viewing_time"":5906}]","7701","instructions","3","45611","0.0-3.0-0.0","","","","","","","","","","","","",""
"","12355","same-different-html-trial","4","64074","0.0-3.0-1.0","","0","""sushi""","""prc_sushi.wav""","32","","","","","","","",""
"[{""page_index"":0,""viewing_time"":8028}]","8028","instructions","5","73107","0.0-3.0-2.0","","","","","","","","","","","","",""
"","10297","same-different-html","6","85441","0.0-3.0-3.0","","0","""sushi""","""prc_sushi.wav""","191","","","same","1","","","0",""
"[{""page_index"":0,""viewing_time"":12749}]","12750","instructions","7","99194","0.0-3.0-4.0","","","","","","","","","","","","",""
"","6958","same-different-html","8","108162","0.0-3.0-5.0","","0","""cat""","""prc_sushi.wav""","90","","","different","1","","","0",""
"[{""page_index"":0,""viewing_time"":5067},{""page_index"":1,""viewing_time"":2722}]","7790","instructions","9","116953","0.0-3.0-6.0","","","","","","","","","","","","",""
"","5699","same-different-html-trial","10","128721","0.0-3.0-7.0","","0","""thank you""","""prc_arigato.wav""","32","","","","","","","",""
"[{""page_index"":0,""viewing_time"":7305}]","7306","instructions","11","137028","0.0-3.0-8.0","","","","","","","","","","","","",""
"","3849","same-different-html","12","142884","0.0-3.0-9.0","","0","""thank you""","""prc_arigato.wav""","191","","","same","1","","","0",""
"","9033","same-different-html","13","154956","0.0-3.0-10.0","","0","""cat""","""prc_arigato.wav""","90","","","different","1","","","0",""
"[{""page_index"":0,""viewing_time"":1384},{""page_index"":1,""viewing_time"":1592}]","2977","instructions","14","158945","0.0-3.0-11.0","","","","","","","","","","","","",""
"","3169","same-different-html-trial","15","168150","0.0-3.0-12.0","","1638-10","""fast asleep""","""gussuri.wav""","32","fast asleep","NRI","","","","","","1"
"","5251","same-different-html-trial","16","181387","0.0-3.0-13.0","","1638-10","""harsh""","""kokukoku.wav""","32","harsh","RNAdj","","","","","","2"
"","3157","same-different-html-trial","17","191590","0.0-3.0-14.0","","1638-10","""nonchalantly""","""kerokero.wav""","32","nonchalantly","RNRI","","","","","","3"
"","3363","same-different-html-trial","18","201991","0.0-3.0-15.0","","1638-10","""glossy""","""tsuya.wav""","32","glossy","SRI","","","","","","4"
"","5085","same-different-html-trial","19","214156","0.0-3.0-16.0","","1638-10","""exact""","""kakkirikakkiri.wav""","32","exact","RNRI","","","","","","5"
"","6047","same-different-html-trial","20","229185","0.0-3.0-17.0","","1638-10","""tasteless""","""yaboyabo.wav""","32","tasteless","RNAdj","","","","","","6"
"","6162","same-different-html-trial","21","242367","0.0-3.0-18.0","","1638-10","""energetic""","""kibikibi.wav""","32","energetic","RI","","","","","","7"
"","5667","same-different-html-trial","22","255077","0.0-3.0-19.0","","1638-10","""gaping""","""pokapoka.wav""","32","gaping","RNRI","","","","","","8"
"","3174","same-different-html-trial","23","265305","0.0-3.0-20.0","","1638-10","""decisive""","""pisha.wav""","32","decisive","NRI","","","","","","9"
"","6698","same-different-html-trial","24","279064","0.0-3.0-21.0","","1638-10","""crowded""","""bisshiri.wav""","32","crowded","NRI","","","","","","10"
"","3426","same-different-html-trial","25","289551","0.0-3.0-22.0","","1638-10","""shivering""","""buru.wav""","32","shivering","SRI","","","","","","11"
"","6166","same-different-html-trial","26","302769","0.0-3.0-23.0","","1638-10","""messy""","""gocha.wav""","32","messy","SRI","","","","","","12"
"","528","same-different-html-trial","27","310318","0.0-3.0-24.0","","1638-10","""impossible""","""muri.wav""","32","impossible","NAdj","","","","","","13"
"","4114","same-different-html-trial","28","321461","0.0-3.0-25.0","","1638-10","""wobbly""","""yura.wav""","32","wobbly","SRI","","","","","","14"
"","298","same-different-html-trial","29","328802","0.0-3.0-26.0","","1638-10","""fat""","""debudebu.wav""","32","fat","RI","","","","","","15"
"","3365","same-different-html-trial","30","339205","0.0-3.0-27.0","","1638-10","""offended""","""kachin.wav""","32","offended","NRI","","","","","","16"
"","6840","same-different-html-trial","31","353068","0.0-3.0-28.0","","1638-10","""pure""","""muku.wav""","32","pure","NAdj","","","","","","17"
"","7760","same-different-html-trial","32","367892","0.0-3.0-29.0","","1638-10","""useless""","""damedame.wav""","32","useless","RNAdj","","","","","","18"
"","3230","same-different-html-trial","33","378199","0.0-3.0-30.0","","1638-10","""steaming""","""hokahoka.wav""","32","steaming","RI","","","","","","19"
"","511","same-different-html-trial","34","385729","0.0-3.0-31.0","","1638-10","""noisy""","""gayagaya.wav""","32","noisy","RI","","","","","","20"
"","6387","same-different-html-trial","35","399150","0.0-3.0-32.0","","1638-10","""fragile""","""yawayawa.wav""","32","fragile","RNAdj","","","","","","21"
"","89","same-different-html-trial","36","406276","0.0-3.0-33.0","","1638-10","""disadvantaged""","""furi.wav""","32","disadvantaged","NAdj","","","","","","22"
"","3588","same-different-html-trial","37","416911","0.0-3.0-34.0","","1638-10","""plump""","""potcharipotchari.wav""","32","plump","RNRI","","","","","","23"
"","3065","same-different-html-trial","38","427033","0.0-3.0-35.0","","1638-10","""rash""","""mucha.wav""","32","rash","NAdj","","","","","","24"
"","336","same-different-html-trial","39","434415","0.0-3.0-36.0","","1638-10","""crowded""","""bisshiri.wav""","32","crowded","NRI","","","","","","25"
"","644","same-different-html-trial","40","442096","0.0-3.0-37.0","","1638-10","""decisive""","""pisha.wav""","32","decisive","NRI","","","","","","26"
"","5761","same-different-html-trial","41","454892","0.0-3.0-38.0","","1638-10","""energetic""","""kibikibi.wav""","32","energetic","RI","","","","","","27"
"","592","same-different-html-trial","42","462509","0.0-3.0-39.0","","1638-10","""rash""","""mucha.wav""","32","rash","NAdj","","","","","","28"
"","3933","same-different-html-trial","43","473474","0.0-3.0-40.0","","1638-10","""disadvantaged""","""furi.wav""","32","disadvantaged","NAdj","","","","","","29"
"","85","same-different-html-trial","44","480585","0.0-3.0-41.0","","1638-10","""offended""","""kachin.wav""","32","offended","NRI","","","","","","30"
"","617","same-different-html-trial","45","488247","0.0-3.0-42.0","","1638-10","""fragile""","""yawayawa.wav""","32","fragile","RNAdj","","","","","","31"
"","2361","same-different-html-trial","46","497647","0.0-3.0-43.0","","1638-10","""harsh""","""kokukoku.wav""","32","harsh","RNAdj","","","","","","32"
"","768","same-different-html-trial","47","505487","0.0-3.0-44.0","","1638-10","""messy""","""gocha.wav""","32","messy","SRI","","","","","","33"
"","2086","same-different-html-trial","48","514606","0.0-3.0-45.0","","1638-10","""shivering""","""buru.wav""","32","shivering","SRI","","","","","","34"
"","592","same-different-html-trial","49","522235","0.0-3.0-46.0","","1638-10","""tasteless""","""yaboyabo.wav""","32","tasteless","RNAdj","","","","","","35"
"","3461","same-different-html-trial","50","532745","0.0-3.0-47.0","","1638-10","""plump""","""potcharipotchari.wav""","32","plump","RNRI","","","","","","36"
"","394","same-different-html-trial","51","540175","0.0-3.0-48.0","","1638-10","""fat""","""debudebu.wav""","32","fat","RI","","","","","","37"
"","5909","same-different-html-trial","52","554051","0.0-3.0-49.0","","1638-10","""impossible""","""muri.wav""","32","impossible","NAdj","","","","","","38"
"","155","same-different-html-trial","53","561238","0.0-3.0-50.0","","1638-10","""fast asleep""","""gussuri.wav""","32","fast asleep","NRI","","","","","","39"
"","4208","same-different-html-trial","54","572483","0.0-3.0-51.0","","1638-10","""useless""","""damedame.wav""","32","useless","RNAdj","","","","","","40"
"","391","same-different-html-trial","55","579917","0.0-3.0-52.0","","1638-10","""pure""","""muku.wav""","32","pure","NAdj","","","","","","41"
"","161","same-different-html-trial","56","587129","0.0-3.0-53.0","","1638-10","""nonchalantly""","""kerokero.wav""","32","nonchalantly","RNRI","","","","","","42"
"","328","same-different-html-trial","57","594491","0.0-3.0-54.0","","1638-10","""gaping""","""pokapoka.wav""","32","gaping","RNRI","","","","","","43"
"","1304","same-different-html-trial","58","602834","0.0-3.0-55.0","","1638-10","""glossy""","""tsuya.wav""","32","glossy","SRI","","","","","","44"
"","2497","same-different-html-trial","59","612366","0.0-3.0-56.0","","1638-10","""noisy""","""gayagaya.wav""","32","noisy","RI","","","","","","45"
"","945","same-different-html-trial","60","621109","0.0-3.0-57.0","","1638-10","""steaming""","""hokahoka.wav""","32","steaming","RI","","","","","","46"
"","684","same-different-html-trial","61","628826","0.0-3.0-58.0","","1638-10","""exact""","""kakkirikakkiri.wav""","32","exact","RNRI","","","","","","47"
"","1268","same-different-html-trial","62","637131","0.0-3.0-59.0","","1638-10","""wobbly""","""yura.wav""","32","wobbly","SRI","","","","","","48"
"[{""page_index"":0,""viewing_time"":3687}]","3689","instructions","63","641822","0.0-3.0-60.0","","","","","","","","","","","","",""
"","2912","same-different-html","64","646774","0.0-3.0-61.0","","1638-10","""steaming""","""muku.wav""","90","pure","NAdj","different","1","D","steaming","Y","1"
"","1986","same-different-html","65","651787","0.0-3.0-62.0","","1638-10","""rash""","""damedame.wav""","191","useless","RNAdj","different","0","D","rash","Y","2"
"","1806","same-different-html","66","656603","0.0-3.0-63.0","","1638-10","""crowded""","""kerokero.wav""","191","nonchalantly","RNRI","different","0","D","crowded","Y","3"
"","1478","same-different-html","67","661105","0.0-3.0-64.0","","1638-10","""messy""","""gocha.wav""","90","messy","SRI","same","0","T","messy","Y","4"
"","1959","same-different-html","68","666091","0.0-3.0-65.0","","1638-10","""fast asleep""","""gussuri.wav""","191","fast asleep","NRI","same","1","T","fast asleep","Y","5"
"","2134","same-different-html","69","671246","0.0-3.0-66.0","","1638-10","""crowded""","""bisshiri.wav""","191","crowded","NRI","same","1","T","crowded","Y","6"
"","5087","same-different-html","70","679359","0.0-3.0-67.0","","1638-10","""noisy""","""gayagaya.wav""","90","noisy","RI","same","0","T","noisy","Y","7"
"","1736","same-different-html","71","684115","0.0-3.0-68.0","","1638-10","""impossible""","""gocha.wav""","191","messy","SRI","different","0","D","impossible","Y","8"
"","2280","same-different-html","72","689418","0.0-3.0-69.0","","1638-10","""disadvantaged""","""furi.wav""","191","disadvantaged","NAdj","same","1","T","disadvantaged","Y","9"
"","5460","same-different-html","73","697893","0.0-3.0-70.0","","1638-10","""gaping""","""pokapoka.wav""","191","gaping","RNRI","same","1","T","gaping","Y","10"
"","4512","same-different-html","74","705418","0.0-3.0-71.0","","1638-10","""tasteless""","""yaboyabo.wav""","191","tasteless","RNAdj","same","1","T","tasteless","Y","11"
"","2235","same-different-html","75","710671","0.0-3.0-72.0","","1638-10","""useless""","""pisha.wav""","90","decisive","NRI","different","1","D","useless","Y","12"
"","2677","same-different-html","76","716380","0.0-3.0-73.0","","1638-10","""glossy""","""gayagaya.wav""","191","noisy","RI","different","0","D","glossy","Y","13"
"","2020","same-different-html","77","721414","0.0-3.0-74.0","","1638-10","""impossible""","""muri.wav""","90","impossible","NAdj","same","0","T","impossible","Y","14"
"","1138","same-different-html","78","725562","0.0-3.0-75.0","","1638-10","""tasteless""","""kokukoku.wav""","90","harsh","RNAdj","different","1","D","tasteless","Y","15"
"","1174","same-different-html","79","729758","0.0-3.0-76.0","","1638-10","""exact""","""kibikibi.wav""","191","energetic","RI","different","0","D","exact","Y","16"
"","1068","same-different-html","80","733842","0.0-3.0-77.0","","1638-10","""pure""","""muku.wav""","191","pure","NAdj","same","1","T","pure","Y","17"
"","1657","same-different-html","81","738518","0.0-3.0-78.0","","1638-10","""rash""","""mucha.wav""","191","rash","NAdj","same","1","T","rash","Y","18"
"","980","same-different-html","82","742520","0.0-3.0-79.0","","1638-10","""wobbly""","""yura.wav""","90","wobbly","SRI","same","0","T","wobbly","Y","19"
"","4401","same-different-html","83","749939","0.0-3.0-80.0","","1638-10","""fast asleep""","""buru.wav""","90","shivering","SRI","different","1","D","fast asleep","Y","20"
"","1761","same-different-html","84","754712","0.0-3.0-81.0","","1638-10","""fat""","""yaboyabo.wav""","191","tasteless","RNAdj","different","0","D","fat","Y","21"
"","1188","same-different-html","85","758930","0.0-3.0-82.0","","1638-10","""nonchalantly""","""kerokero.wav""","191","nonchalantly","RNRI","same","1","T","nonchalantly","Y","22"
"","994","same-different-html","86","762955","0.0-3.0-83.0","","1638-10","""fragile""","""mucha.wav""","90","rash","NAdj","different","1","D","fragile","Y","23"
"","1039","same-different-html","87","767017","0.0-3.0-84.0","","1638-10","""glossy""","""tsuya.wav""","90","glossy","SRI","same","0","T","glossy","Y","24"
"","1007","same-different-html","88","771050","0.0-3.0-85.0","","1638-10","""fragile""","""yawayawa.wav""","191","fragile","RNAdj","same","1","T","fragile","Y","25"
"","929","same-different-html","89","774996","0.0-3.0-86.0","","1638-10","""fat""","""debudebu.wav""","90","fat","RI","same","0","T","fat","Y","26"
"","1056","same-different-html","90","779076","0.0-3.0-87.0","","1638-10","""decisive""","""pisha.wav""","191","decisive","NRI","same","1","T","decisive","Y","27"
"","1114","same-different-html","91","783220","0.0-3.0-88.0","","1638-10","""useless""","""damedame.wav""","90","useless","RNAdj","same","0","T","useless","Y","28"
"","1002","same-different-html","92","787239","0.0-3.0-89.0","","1638-10","""offended""","""furi.wav""","191","disadvantaged","NAdj","different","0","D","offended","Y","29"
"","938","same-different-html","93","791196","0.0-3.0-90.0","","1638-10","""gaping""","""hokahoka.wav""","90","steaming","RI","different","1","D","gaping","Y","30"
"","1079","same-different-html","94","795300","0.0-3.0-91.0","","1638-10","""plump""","""muri.wav""","90","impossible","NAdj","different","1","D","plump","Y","31"
"","852","same-different-html","95","799172","0.0-3.0-92.0","","1638-10","""messy""","""yura.wav""","191","wobbly","SRI","different","0","D","messy","Y","32"
"","855","same-different-html","96","803040","0.0-3.0-93.0","","1638-10","""harsh""","""kakkirikakkiri.wav""","90","exact","RNRI","different","1","D","harsh","Y","33"
"","874","same-different-html","97","806947","0.0-3.0-94.0","","1638-10","""plump""","""potcharipotchari.wav""","191","plump","RNRI","same","1","T","plump","Y","34"
"","923","same-different-html","98","810899","0.0-3.0-95.0","","1638-10","""decisive""","""bisshiri.wav""","90","crowded","NRI","different","1","D","decisive","Y","35"
"","1068","same-different-html","99","814990","0.0-3.0-96.0","","1638-10","""shivering""","""yawayawa.wav""","191","fragile","RNAdj","different","0","D","shivering","Y","36"
"","1056","same-different-html","100","819062","0.0-3.0-97.0","","1638-10","""disadvantaged""","""gussuri.wav""","191","fast asleep","NRI","different","0","D","disadvantaged","Y","37"
"","1718","same-different-html","101","825847","0.0-3.0-98.0","","1638-10","""pure""","""kachin.wav""","90","offended","NRI","different","1","D","pure","Y","38"
"","1261","same-different-html","102","830123","0.0-3.0-99.0","","1638-10","""steaming""","""hokahoka.wav""","90","steaming","RI","same","0","T","steaming","Y","39"
"","968","same-different-html","103","834111","0.0-3.0-100.0","","1638-10","""shivering""","""buru.wav""","191","shivering","SRI","same","1","T","shivering","Y","40"
"","1507","same-different-html","104","838637","0.0-3.0-101.0","","1638-10","""energetic""","""pokapoka.wav""","90","gaping","RNRI","different","1","D","energetic","Y","41"
"","2982","same-different-html","105","844634","0.0-3.0-102.0","","1638-10","""offended""","""kachin.wav""","191","offended","NRI","same","1","T","offended","Y","42"
"","2039","same-different-html","106","849731","0.0-3.0-103.0","","1638-10","""energetic""","""kibikibi.wav""","191","energetic","RI","same","1","T","energetic","Y","43"
"","3765","same-different-html","107","856510","0.0-3.0-104.0","","1638-10","""exact""","""kakkirikakkiri.wav""","90","exact","RNRI","same","0","T","exact","Y","44"
"","1684","same-different-html","108","861231","0.0-3.0-105.0","","1638-10","""nonchalantly""","""potcharipotchari.wav""","191","plump","RNRI","different","0","D","nonchalantly","Y","45"
"","1446","same-different-html","109","865693","0.0-3.0-106.0","","1638-10","""wobbly""","""debudebu.wav""","90","fat","RI","different","1","D","wobbly","Y","46"
"","1056","same-different-html","110","869764","0.0-3.0-107.0","","1638-10","""noisy""","""tsuya.wav""","191","glossy","SRI","different","0","D","noisy","Y","47"
"","1297","same-different-html","111","874086","0.0-3.0-108.0","","1638-10","""harsh""","""kokukoku.wav""","90","harsh","RNAdj","same","0","T","harsh","Y","48"
"[{""page_index"":0,""viewing_time"":10449}]","10450","instructions","112","885572","0.0-3.0-109.0","","","","","","","","","","","","",""
