"view_history","rt","trial_type","trial_index","time_elapsed","internal_node_id","responses","Id","word","sound","key_press","TrueMeaning","WordType","answer","correct","TrialType","TargetMeaning","LegalTrial","trialNum"
"[{""page_index"":0,""viewing_time"":3489}]","3490","instructions","0","3491","0.0-0.0","","","","","","","","","","","","",""
"[{""page_index"":0,""viewing_time"":1567},{""page_index"":1,""viewing_time"":2095},{""page_index"":2,""viewing_time"":1837},{""page_index"":3,""viewing_time"":1284},{""page_index"":4,""viewing_time"":25328}]","32111","instructions","1","35602","0.0-1.0","","","","","","","","","","","","",""
"","10793","survey-multi-choice","2","46399","0.0-2.0","{""Q0"":""Yes"",""Q1"":""Yes"",""Q2"":""Yes"",""Q3"":""Yes"",""Q4"":""Yes""}","","","","","","","","","","","",""
"[{""page_index"":0,""viewing_time"":1179},{""page_index"":1,""viewing_time"":18739}]","19918","instructions","3","66317","0.0-3.0-0.0","","","","","","","","","","","","",""
"","5200","same-different-html-trial","4","77530","0.0-3.0-1.0","","0","""sushi""","""prc_sushi.wav""","32","","","","","","","",""
"[{""page_index"":0,""viewing_time"":8786}]","8786","instructions","5","87318","0.0-3.0-2.0","","","","","","","","","","","","",""
"","5491","same-different-html","6","94814","0.0-3.0-3.0","","0","""sushi""","""prc_sushi.wav""","191","","","same","1","","","0",""
"[{""page_index"":0,""viewing_time"":2820}]","2820","instructions","7","98634","0.0-3.0-4.0","","","","","","","","","","","","",""
"","3062","same-different-html","8","103699","0.0-3.0-5.0","","0","""cat""","""prc_sushi.wav""","90","","","different","1","","","0",""
"[{""page_index"":0,""viewing_time"":3500},{""page_index"":1,""viewing_time"":2337}]","5837","instructions","9","110538","0.0-3.0-6.0","","","","","","","","","","","","",""
"","2145","same-different-html-trial","10","118691","0.0-3.0-7.0","","0","""thank you""","""prc_arigato.wav""","32","","","","","","","",""
"[{""page_index"":0,""viewing_time"":1391}]","1391","instructions","11","121083","0.0-3.0-8.0","","","","","","","","","","","","",""
"","3363","same-different-html","12","126451","0.0-3.0-9.0","","0","""thank you""","""prc_arigato.wav""","191","","","same","1","","","0",""
"","2945","same-different-html","13","132402","0.0-3.0-10.0","","0","""cat""","""prc_arigato.wav""","90","","","different","1","","","0",""
"[{""page_index"":0,""viewing_time"":1632},{""page_index"":1,""viewing_time"":3945}]","5577","instructions","14","138980","0.0-3.0-11.0","","","","","","","","","","","","",""
"","1589","same-different-html-trial","15","146579","0.0-3.0-12.0","","2466-3","""pure""","""mukumuku.wav""","32","pure","RNAdj","","","","","","1"
"","4966","same-different-html-trial","16","158554","0.0-3.0-13.0","","2466-3","""offended""","""kachin.wav""","32","offended","NRI","","","","","","2"
"","12744","same-different-html-trial","17","178307","0.0-3.0-14.0","","2466-3","""useless""","""dame.wav""","32","useless","NAdj","","","","","","3"
"","4073","same-different-html-trial","18","189387","0.0-3.0-15.0","","2466-3","""crowded""","""bisshiribisshiri.wav""","32","crowded","RNRI","","","","","","4"
"","11092","same-different-html-trial","19","207491","0.0-3.0-16.0","","2466-3","""perfect""","""batchiribatchiri.wav""","32","perfect","RNRI","","","","","","5"
"","9130","same-different-html-trial","20","223627","0.0-3.0-17.0","","2466-3","""stiff""","""gowagowa.wav""","32","stiff","RI","","","","","","6"
"","2455","same-different-html-trial","21","233090","0.0-3.0-18.0","","2466-3","""deficient""","""fubifubi.wav""","32","deficient","RNAdj","","","","","","7"
"","2257","same-different-html-trial","22","242354","0.0-3.0-19.0","","2466-3","""gaudy""","""kabi.wav""","32","gaudy","NAdj","","","","","","8"
"","585","same-different-html-trial","23","249947","0.0-3.0-20.0","","2466-3","""tasteless""","""yaboyabo.wav""","32","tasteless","RNAdj","","","","","","9"
"","1830","same-different-html-trial","24","258786","0.0-3.0-21.0","","2466-3","""disadvantaged""","""furi.wav""","32","disadvantaged","NAdj","","","","","","10"
"","16127","same-different-html-trial","25","281922","0.0-3.0-22.0","","2466-3","""to change ocmpletely""","""garagara.wav""","32","to change ocmpletely","RNRI","","","","","","11"
"","4537","same-different-html-trial","26","293467","0.0-3.0-23.0","","2466-3","""happy""","""ukiuki.wav""","32","happy","RI","","","","","","12"
"","688","same-different-html-trial","27","301162","0.0-3.0-24.0","","2466-3","""messy""","""gochagocha.wav""","32","messy","RI","","","","","","13"
"","4539","same-different-html-trial","28","312708","0.0-3.0-25.0","","2466-3","""worn out""","""boro.wav""","32","worn out","SRI","","","","","","14"
"","6701","same-different-html-trial","29","326417","0.0-3.0-26.0","","2466-3","""exact""","""kakkiri.wav""","32","exact","NRI","","","","","","15"
"","8295","same-different-html-trial","30","341723","0.0-3.0-27.0","","2466-3","""nonchalantly""","""kerokero.wav""","32","nonchalantly","RNRI","","","","","","16"
"","5358","same-different-html-trial","31","354089","0.0-3.0-28.0","","2466-3","""fat""","""debu.wav""","32","fat","SRI","","","","","","17"
"","2292","same-different-html-trial","32","363387","0.0-3.0-29.0","","2466-3","""shivering""","""buru.wav""","32","shivering","SRI","","","","","","18"
"","2306","same-different-html-trial","33","372698","0.0-3.0-30.0","","2466-3","""stupid""","""bakabaka.wav""","32","stupid","RNAdj","","","","","","19"
"","2854","same-different-html-trial","34","382562","0.0-3.0-31.0","","2466-3","""sturdy""","""gashi.wav""","32","sturdy","NRI","","","","","","20"
"","3777","same-different-html-trial","35","393348","0.0-3.0-32.0","","2466-3","""chubby""","""buku.wav""","32","chubby","SRI","","","","","","21"
"","2306","same-different-html-trial","36","402659","0.0-3.0-33.0","","2466-3","""vulgar""","""zoku.wav""","32","vulgar","NAdj","","","","","","22"
"","1893","same-different-html-trial","37","411561","0.0-3.0-34.0","","2466-3","""suspenseful""","""harahara.wav""","32","suspenseful","RI","","","","","","23"
"","7289","same-different-html-trial","38","425859","0.0-3.0-35.0","","2466-3","""sudden""","""pata.wav""","32","sudden","NRI","","","","","","24"
"","4494","same-different-html-trial","39","437363","0.0-3.0-36.0","","2466-3","""messy""","""gochagocha.wav""","32","messy","RI","","","","","","25"
"","5540","same-different-html-trial","40","449913","0.0-3.0-37.0","","2466-3","""sturdy""","""gashi.wav""","32","sturdy","NRI","","","","","","26"
"","14392","same-different-html-trial","41","471314","0.0-3.0-38.0","","2466-3","""offended""","""kachin.wav""","32","offended","NRI","","","","","","27"
"","9220","same-different-html-trial","42","487539","0.0-3.0-39.0","","2466-3","""stiff""","""gowagowa.wav""","32","stiff","RI","","","","","","28"
"","262","same-different-html-trial","43","494810","0.0-3.0-40.0","","2466-3","""happy""","""ukiuki.wav""","32","happy","RI","","","","","","29"
"","657","same-different-html-trial","44","502476","0.0-3.0-41.0","","2466-3","""crowded""","""bisshiribisshiri.wav""","32","crowded","RNRI","","","","","","30"
"","5830","same-different-html-trial","45","515313","0.0-3.0-42.0","","2466-3","""suspenseful""","""harahara.wav""","32","suspenseful","RI","","","","","","31"
"","2829","same-different-html-trial","46","525148","0.0-3.0-43.0","","2466-3","""vulgar""","""zoku.wav""","32","vulgar","NAdj","","","","","","32"
"","2818","same-different-html-trial","47","534971","0.0-3.0-44.0","","2466-3","""shivering""","""buru.wav""","32","shivering","SRI","","","","","","33"
"","938","same-different-html-trial","48","542914","0.0-3.0-45.0","","2466-3","""stupid""","""bakabaka.wav""","32","stupid","RNAdj","","","","","","34"
"","4601","same-different-html-trial","49","554522","0.0-3.0-46.0","","2466-3","""deficient""","""fubifubi.wav""","32","deficient","RNAdj","","","","","","35"
"","6030","same-different-html-trial","50","567561","0.0-3.0-47.0","","2466-3","""to change ocmpletely""","""garagara.wav""","32","to change ocmpletely","RNRI","","","","","","36"
"","6273","same-different-html-trial","51","580843","0.0-3.0-48.0","","2466-3","""worn out""","""boro.wav""","32","worn out","SRI","","","","","","37"
"","1166","same-different-html-trial","52","589018","0.0-3.0-49.0","","2466-3","""tasteless""","""yaboyabo.wav""","32","tasteless","RNAdj","","","","","","38"
"","401","same-different-html-trial","53","596426","0.0-3.0-50.0","","2466-3","""exact""","""kakkiri.wav""","32","exact","NRI","","","","","","39"
"","424","same-different-html-trial","54","603859","0.0-3.0-51.0","","2466-3","""perfect""","""batchiribatchiri.wav""","32","perfect","RNRI","","","","","","40"
"","9446","same-different-html-trial","55","620313","0.0-3.0-52.0","","2466-3","""useless""","""dame.wav""","32","useless","NAdj","","","","","","41"
"","233","same-different-html-trial","56","627555","0.0-3.0-53.0","","2466-3","""disadvantaged""","""furi.wav""","32","disadvantaged","NAdj","","","","","","42"
"","271","same-different-html-trial","57","634834","0.0-3.0-54.0","","2466-3","""gaudy""","""kabi.wav""","32","gaudy","NAdj","","","","","","43"
"","462","same-different-html-trial","58","642305","0.0-3.0-55.0","","2466-3","""chubby""","""buku.wav""","32","chubby","SRI","","","","","","44"
"","7143","same-different-html-trial","59","656458","0.0-3.0-56.0","","2466-3","""sudden""","""pata.wav""","32","sudden","NRI","","","","","","45"
"","88","same-different-html-trial","60","663554","0.0-3.0-57.0","","2466-3","""fat""","""debu.wav""","32","fat","SRI","","","","","","46"
"","5256","same-different-html-trial","61","675819","0.0-3.0-58.0","","2466-3","""pure""","""mukumuku.wav""","32","pure","RNAdj","","","","","","47"
"","512","same-different-html-trial","62","683337","0.0-3.0-59.0","","2466-3","""nonchalantly""","""kerokero.wav""","32","nonchalantly","RNRI","","","","","","48"
"[{""page_index"":0,""viewing_time"":9445}]","9445","instructions","63","693784","0.0-3.0-60.0","","","","","","","","","","","","",""
"","12063","same-different-html","64","707851","0.0-3.0-61.0","","2466-3","""deficient""","""gochagocha.wav""","90","messy","RI","different","1","D","deficient","Y","1"
"","3159","same-different-html","65","714017","0.0-3.0-62.0","","2466-3","""tasteless""","""gowagowa.wav""","90","stiff","RI","different","1","D","tasteless","Y","2"
"","2870","same-different-html","66","719890","0.0-3.0-63.0","","2466-3","""sudden""","""dame.wav""","90","useless","NAdj","different","1","D","sudden","Y","3"
"","1872","same-different-html","67","724769","0.0-3.0-64.0","","2466-3","""deficient""","""fubifubi.wav""","191","deficient","RNAdj","same","1","T","deficient","Y","4"
"","1946","same-different-html","68","729722","0.0-3.0-65.0","","2466-3","""stupid""","""garagara.wav""","90","to change ocmpletely","RNRI","different","1","D","stupid","Y","5"
"","2210","same-different-html","69","734937","0.0-3.0-66.0","","2466-3","""nonchalantly""","""mukumuku.wav""","90","pure","RNAdj","different","1","D","nonchalantly","Y","6"
"","1899","same-different-html","70","739841","0.0-3.0-67.0","","2466-3","""crowded""","""bisshiribisshiri.wav""","191","crowded","RNRI","same","1","T","crowded","Y","7"
"","2464","same-different-html","71","745312","0.0-3.0-68.0","","2466-3","""tasteless""","""yaboyabo.wav""","191","tasteless","RNAdj","same","1","T","tasteless","Y","8"
"","2355","same-different-html","72","750674","0.0-3.0-69.0","","2466-3","""nonchalantly""","""kerokero.wav""","191","nonchalantly","RNRI","same","1","T","nonchalantly","Y","9"
"","3625","same-different-html","73","757304","0.0-3.0-70.0","","2466-3","""stiff""","""gowagowa.wav""","90","stiff","RI","same","0","T","stiff","Y","10"
"","2373","same-different-html","74","762682","0.0-3.0-71.0","","2466-3","""messy""","""yaboyabo.wav""","90","tasteless","RNAdj","different","1","D","messy","Y","11"
"","1657","same-different-html","75","767345","0.0-3.0-72.0","","2466-3","""disadvantaged""","""furi.wav""","191","disadvantaged","NAdj","same","1","T","disadvantaged","Y","12"
"","3068","same-different-html","76","773419","0.0-3.0-73.0","","2466-3","""chubby""","""gashi.wav""","191","sturdy","NRI","different","0","D","chubby","Y","13"
"","1841","same-different-html","77","778265","0.0-3.0-74.0","","2466-3","""stupid""","""bakabaka.wav""","191","stupid","RNAdj","same","1","T","stupid","Y","14"
"","3228","same-different-html","78","784496","0.0-3.0-75.0","","2466-3","""fat""","""debu.wav""","90","fat","SRI","same","0","T","fat","Y","15"
"","2236","same-different-html","79","789737","0.0-3.0-76.0","","2466-3","""fat""","""ukiuki.wav""","90","happy","RI","different","1","D","fat","Y","16"
"","2739","same-different-html","80","795482","0.0-3.0-77.0","","2466-3","""exact""","""batchiribatchiri.wav""","90","perfect","RNRI","different","1","D","exact","Y","17"
"","12739","same-different-html","81","811227","0.0-3.0-78.0","","2466-3","""useless""","""dame.wav""","90","useless","NAdj","same","0","T","useless","Y","18"
"","1879","same-different-html","82","816113","0.0-3.0-79.0","","2466-3","""stiff""","""kakkiri.wav""","90","exact","NRI","different","1","D","stiff","Y","19"
"","1643","same-different-html","83","820761","0.0-3.0-80.0","","2466-3","""gaudy""","""kabi.wav""","90","gaudy","NAdj","same","0","T","gaudy","Y","20"
"","3029","same-different-html","84","826795","0.0-3.0-81.0","","2466-3","""perfect""","""batchiribatchiri.wav""","191","perfect","RNRI","same","1","T","perfect","Y","21"
"","1962","same-different-html","85","831760","0.0-3.0-82.0","","2466-3","""messy""","""gochagocha.wav""","191","messy","RI","same","1","T","messy","Y","22"
"","4109","same-different-html","86","838874","0.0-3.0-83.0","","2466-3","""gaudy""","""kachin.wav""","90","offended","NRI","different","1","D","gaudy","Y","23"
"","2010","same-different-html","87","843890","0.0-3.0-84.0","","2466-3","""shivering""","""bakabaka.wav""","90","stupid","RNAdj","different","1","D","shivering","Y","24"
"","1826","same-different-html","88","848722","0.0-3.0-85.0","","2466-3","""happy""","""ukiuki.wav""","191","happy","RI","same","1","T","happy","Y","25"
"","1827","same-different-html","89","853555","0.0-3.0-86.0","","2466-3","""suspenseful""","""harahara.wav""","191","suspenseful","RI","same","1","T","suspenseful","Y","26"
"","6657","same-different-html","90","863217","0.0-3.0-87.0","","2466-3","""suspenseful""","""debu.wav""","90","fat","SRI","different","1","D","suspenseful","Y","27"
"","3369","same-different-html","91","869592","0.0-3.0-88.0","","2466-3","""worn out""","""fubifubi.wav""","90","deficient","RNAdj","different","1","D","worn out","Y","28"
"","4085","same-different-html","92","876681","0.0-3.0-89.0","","2466-3","""exact""","""kakkiri.wav""","191","exact","NRI","same","1","T","exact","Y","29"
"","1673","same-different-html","93","881361","0.0-3.0-90.0","","2466-3","""sturdy""","""furi.wav""","90","disadvantaged","NAdj","different","1","D","sturdy","Y","30"
"","2213","same-different-html","94","886577","0.0-3.0-91.0","","2466-3","""to change ocmpletely""","""garagara.wav""","90","to change ocmpletely","RNRI","same","0","T","to change ocmpletely","Y","31"
"","2611","same-different-html","95","892194","0.0-3.0-92.0","","2466-3","""pure""","""kabi.wav""","90","gaudy","NAdj","different","1","D","pure","Y","32"
"","3967","same-different-html","96","899168","0.0-3.0-93.0","","2466-3","""useless""","""zoku.wav""","90","vulgar","NAdj","different","1","D","useless","Y","33"
"","2317","same-different-html","97","904488","0.0-3.0-94.0","","2466-3","""pure""","""mukumuku.wav""","90","pure","RNAdj","same","0","T","pure","Y","34"
"","2916","same-different-html","98","910410","0.0-3.0-95.0","","2466-3","""happy""","""kerokero.wav""","90","nonchalantly","RNRI","different","1","D","happy","Y","35"
"","2611","same-different-html","99","916026","0.0-3.0-96.0","","2466-3","""perfect""","""bisshiribisshiri.wav""","90","crowded","RNRI","different","1","D","perfect","Y","36"
"","1899","same-different-html","100","920928","0.0-3.0-97.0","","2466-3","""chubby""","""buku.wav""","90","chubby","SRI","same","0","T","chubby","Y","37"
"","3285","same-different-html","101","927218","0.0-3.0-98.0","","2466-3","""worn out""","""boro.wav""","90","worn out","SRI","same","0","T","worn out","Y","38"
"","1936","same-different-html","102","932161","0.0-3.0-99.0","","2466-3","""vulgar""","""zoku.wav""","191","vulgar","NAdj","same","1","T","vulgar","Y","39"
"","3027","same-different-html","103","938194","0.0-3.0-100.0","","2466-3","""offended""","""kachin.wav""","90","offended","NRI","same","0","T","offended","Y","40"
"","2086","same-different-html","104","943288","0.0-3.0-101.0","","2466-3","""crowded""","""buru.wav""","90","shivering","SRI","different","1","D","crowded","Y","41"
"","2388","same-different-html","105","948682","0.0-3.0-102.0","","2466-3","""shivering""","""buru.wav""","90","shivering","SRI","same","0","T","shivering","Y","42"
"","1889","same-different-html","106","953577","0.0-3.0-103.0","","2466-3","""to change ocmpletely""","""pata.wav""","90","sudden","NRI","different","1","D","to change ocmpletely","Y","43"
"","3053","same-different-html","107","959634","0.0-3.0-104.0","","2466-3","""vulgar""","""buku.wav""","90","chubby","SRI","different","1","D","vulgar","Y","44"
"","2506","same-different-html","108","965146","0.0-3.0-105.0","","2466-3","""offended""","""harahara.wav""","90","suspenseful","RI","different","1","D","offended","Y","45"
"","1970","same-different-html","109","970121","0.0-3.0-106.0","","2466-3","""disadvantaged""","""boro.wav""","90","worn out","SRI","different","1","D","disadvantaged","Y","46"
"","3476","same-different-html","110","976602","0.0-3.0-107.0","","2466-3","""sudden""","""pata.wav""","191","sudden","NRI","same","1","T","sudden","Y","47"
"","4084","same-different-html","111","983690","0.0-3.0-108.0","","2466-3","""sturdy""","""gashi.wav""","90","sturdy","NRI","same","0","T","sturdy","Y","48"
"[{""page_index"":0,""viewing_time"":11326}]","11326","instructions","112","996018","0.0-3.0-109.0","","","","","","","","","","","","",""
