"view_history","rt","trial_type","trial_index","time_elapsed","internal_node_id","responses","Id","word","sound","key_press","TrueMeaning","WordType","answer","correct","TrialType","TargetMeaning","LegalTrial","trialNum"
"[{""page_index"":0,""viewing_time"":12999}]","12999","instructions","0","13002","0.0-0.0","","","","","","","","","","","","",""
"[{""page_index"":0,""viewing_time"":1150},{""page_index"":1,""viewing_time"":1144},{""page_index"":2,""viewing_time"":1512},{""page_index"":3,""viewing_time"":4504},{""page_index"":4,""viewing_time"":124332}]","132642","instructions","1","145646","0.0-1.0","","","","","","","","","","","","",""
"","29417","survey-multi-choice","2","175070","0.0-2.0","{""Q0"":""Yes"",""Q1"":""Yes"",""Q2"":""Yes"",""Q3"":""Yes"",""Q4"":""Yes""}","","","","","","","","","","","",""
"[{""page_index"":0,""viewing_time"":931},{""page_index"":1,""viewing_time"":2048}]","2980","instructions","3","178051","0.0-3.0-0.0","","","","","","","","","","","","",""
"","2217","same-different-html-trial","4","186286","0.0-3.0-1.0","","0","""sushi""","""prc_sushi.wav""","32","","","","","","","",""
"[{""page_index"":0,""viewing_time"":1613}]","1613","instructions","5","188899","0.0-3.0-2.0","","","","","","","","","","","","",""
"","4987","same-different-html","6","195889","0.0-3.0-3.0","","0","""sushi""","""prc_sushi.wav""","191","","","same","1","","","0",""
"[{""page_index"":0,""viewing_time"":1690}]","1690","instructions","7","198580","0.0-3.0-4.0","","","","","","","","","","","","",""
"","2912","same-different-html","8","203496","0.0-3.0-5.0","","0","""cat""","""prc_sushi.wav""","90","","","different","1","","","0",""
"[{""page_index"":0,""viewing_time"":1081},{""page_index"":1,""viewing_time"":928}]","2009","instructions","9","206507","0.0-3.0-6.0","","","","","","","","","","","","",""
"","1297","same-different-html-trial","10","213811","0.0-3.0-7.0","","0","""thank you""","""prc_arigato.wav""","32","","","","","","","",""
"[{""page_index"":0,""viewing_time"":1594}]","1595","instructions","11","216408","0.0-3.0-8.0","","","","","","","","","","","","",""
"","2896","same-different-html","12","221307","0.0-3.0-9.0","","0","""thank you""","""prc_arigato.wav""","191","","","same","1","","","0",""
"","2780","same-different-html","13","227090","0.0-3.0-10.0","","0","""cat""","""prc_arigato.wav""","90","","","different","1","","","0",""
"[{""page_index"":0,""viewing_time"":23982},{""page_index"":1,""viewing_time"":3295}]","27277","instructions","14","255368","0.0-3.0-11.0","","","","","","","","","","","","",""
"","807","same-different-html-trial","15","262182","0.0-3.0-12.0","","6189-3","""offended""","""kachin.wav""","32","offended","NRI","","","","","","1"
"","338","same-different-html-trial","16","269527","0.0-3.0-13.0","","6189-3","""chubby""","""buku.wav""","32","chubby","SRI","","","","","","2"
"","492","same-different-html-trial","17","277027","0.0-3.0-14.0","","6189-3","""fragile""","""yawayawa.wav""","32","fragile","RNAdj","","","","","","3"
"","74","same-different-html-trial","18","284107","0.0-3.0-15.0","","6189-3","""useless""","""dame.wav""","32","useless","NAdj","","","","","","4"
"","157","same-different-html-trial","19","291269","0.0-3.0-16.0","","6189-3","""agitated""","""hikuhiku.wav""","32","agitated","RI","","","","","","5"
"","91","same-different-html-trial","20","298365","0.0-3.0-17.0","","6189-3","""comfortable""","""raku.wav""","32","comfortable","NAdj","","","","","","6"
"","419","same-different-html-trial","21","305792","0.0-3.0-18.0","","6189-3","""whole""","""gosogoso.wav""","32","whole","RNRI","","","","","","7"
"","272","same-different-html-trial","22","313069","0.0-3.0-19.0","","6189-3","""humid""","""mushi.wav""","32","humid","SRI","","","","","","8"
"","643","same-different-html-trial","23","320719","0.0-3.0-20.0","","6189-3","""gaudy""","""kabikabi.wav""","32","gaudy","RNAdj","","","","","","9"
"","1240","same-different-html-trial","24","328965","0.0-3.0-21.0","","6189-3","""rash""","""muchamucha.wav""","32","rash","RNAdj","","","","","","10"
"","794","same-different-html-trial","25","336766","0.0-3.0-22.0","","6189-3","""fast asleep""","""gussurigussuri.wav""","32","fast asleep","RNRI","","","","","","11"
"","2811","same-different-html-trial","26","346584","0.0-3.0-23.0","","6189-3","""happy""","""uki.wav""","32","happy","SRI","","","","","","12"
"","315","same-different-html-trial","27","353907","0.0-3.0-24.0","","6189-3","""fat""","""debudebu.wav""","32","fat","RI","","","","","","13"
"","266","same-different-html-trial","28","361194","0.0-3.0-25.0","","6189-3","""chatty""","""berabera.wav""","32","chatty","RI","","","","","","14"
"","429","same-different-html-trial","29","368626","0.0-3.0-26.0","","6189-3","""crowded""","""bisshiri.wav""","32","crowded","NRI","","","","","","15"
"","270","same-different-html-trial","30","375900","0.0-3.0-27.0","","6189-3","""sudden""","""patapata.wav""","32","sudden","RNRI","","","","","","16"
"","178","same-different-html-trial","31","383081","0.0-3.0-28.0","","6189-3","""noisy""","""gaya.wav""","32","noisy","SRI","","","","","","17"
"","2554","same-different-html-trial","32","392646","0.0-3.0-29.0","","6189-3","""sloppy""","""zatsu.wav""","32","sloppy","NAdj","","","","","","18"
"","143","same-different-html-trial","33","399796","0.0-3.0-30.0","","6189-3","""steaming""","""hokahoka.wav""","32","steaming","RI","","","","","","19"
"","3525","same-different-html-trial","34","410331","0.0-3.0-31.0","","6189-3","""beneficial""","""toku.wav""","32","beneficial","NAdj","","","","","","20"
"","3929","same-different-html-trial","35","421267","0.0-3.0-32.0","","6189-3","""stupid""","""bakabaka.wav""","32","stupid","RNAdj","","","","","","21"
"","1005","same-different-html-trial","36","429279","0.0-3.0-33.0","","6189-3","""supple""","""shinnari.wav""","32","supple","NRI","","","","","","22"
"","683","same-different-html-trial","37","436964","0.0-3.0-34.0","","6189-3","""gaping""","""poka.wav""","32","gaping","NRI","","","","","","23"
"","2415","same-different-html-trial","38","446386","0.0-3.0-35.0","","6189-3","""decisive""","""pishapisha.wav""","32","decisive","RNRI","","","","","","24"
"","264","same-different-html-trial","39","453658","0.0-3.0-36.0","","6189-3","""happy""","""uki.wav""","32","happy","SRI","","","","","","25"
"","198","same-different-html-trial","40","460862","0.0-3.0-37.0","","6189-3","""steaming""","""hokahoka.wav""","32","steaming","RI","","","","","","26"
"","153","same-different-html-trial","41","468024","0.0-3.0-38.0","","6189-3","""fast asleep""","""gussurigussuri.wav""","32","fast asleep","RNRI","","","","","","27"
"","252","same-different-html-trial","42","475289","0.0-3.0-39.0","","6189-3","""humid""","""mushi.wav""","32","humid","SRI","","","","","","28"
"","178","same-different-html-trial","43","482473","0.0-3.0-40.0","","6189-3","""chatty""","""berabera.wav""","32","chatty","RI","","","","","","29"
"","196","same-different-html-trial","44","489673","0.0-3.0-41.0","","6189-3","""chubby""","""buku.wav""","32","chubby","SRI","","","","","","30"
"","93","same-different-html-trial","45","496772","0.0-3.0-42.0","","6189-3","""gaping""","""poka.wav""","32","gaping","NRI","","","","","","31"
"","267","same-different-html-trial","46","504051","0.0-3.0-43.0","","6189-3","""beneficial""","""toku.wav""","32","beneficial","NAdj","","","","","","32"
"","2320","same-different-html-trial","47","513376","0.0-3.0-44.0","","6189-3","""useless""","""dame.wav""","32","useless","NAdj","","","","","","33"
"","2441","same-different-html-trial","48","522821","0.0-3.0-45.0","","6189-3","""fat""","""debudebu.wav""","32","fat","RI","","","","","","34"
"","1206","same-different-html-trial","49","531033","0.0-3.0-46.0","","6189-3","""stupid""","""bakabaka.wav""","32","stupid","RNAdj","","","","","","35"
"","279","same-different-html-trial","50","538366","0.0-3.0-47.0","","6189-3","""fragile""","""yawayawa.wav""","32","fragile","RNAdj","","","","","","36"
"","87","same-different-html-trial","51","545460","0.0-3.0-48.0","","6189-3","""comfortable""","""raku.wav""","32","comfortable","NAdj","","","","","","37"
"","291","same-different-html-trial","52","552755","0.0-3.0-49.0","","6189-3","""noisy""","""gaya.wav""","32","noisy","SRI","","","","","","38"
"","412","same-different-html-trial","53","560174","0.0-3.0-50.0","","6189-3","""whole""","""gosogoso.wav""","32","whole","RNRI","","","","","","39"
"","98","same-different-html-trial","54","567275","0.0-3.0-51.0","","6189-3","""sloppy""","""zatsu.wav""","32","sloppy","NAdj","","","","","","40"
"","19","same-different-html-trial","55","574300","0.0-3.0-52.0","","6189-3","""crowded""","""bisshiri.wav""","32","crowded","NRI","","","","","","41"
"","531","same-different-html-trial","56","581836","0.0-3.0-53.0","","6189-3","""rash""","""muchamucha.wav""","32","rash","RNAdj","","","","","","42"
"","16028","same-different-html-trial","57","605863","0.0-3.0-54.0","","6189-3","""supple""","""shinnari.wav""","32","supple","NRI","","","","","","43"
"","92799","same-different-html-trial","58","708637","0.0-3.0-55.0","","6189-3","""offended""","""kachin.wav""","32","offended","NRI","","","","","","44"
"","6760","same-different-html-trial","59","722404","0.0-3.0-56.0","","6189-3","""decisive""","""pishapisha.wav""","32","decisive","RNRI","","","","","","45"
"","21","same-different-html-trial","60","729432","0.0-3.0-57.0","","6189-3","""gaudy""","""kabikabi.wav""","32","gaudy","RNAdj","","","","","","46"
"","205","same-different-html-trial","61","736645","0.0-3.0-58.0","","6189-3","""sudden""","""patapata.wav""","32","sudden","RNRI","","","","","","47"
"","142","same-different-html-trial","62","743794","0.0-3.0-59.0","","6189-3","""agitated""","""hikuhiku.wav""","32","agitated","RI","","","","","","48"
"[{""page_index"":0,""viewing_time"":17957}]","17957","instructions","63","762751","0.0-3.0-60.0","","","","","","","","","","","","",""
"","2109","same-different-html","64","766865","0.0-3.0-61.0","","6189-3","""gaudy""","""kachin.wav""","90","offended","NRI","different","1","D","gaudy","Y","1"
"","2092","same-different-html","65","771961","0.0-3.0-62.0","","6189-3","""comfortable""","""kabikabi.wav""","191","gaudy","RNAdj","different","0","D","comfortable","Y","2"
"","1580","same-different-html","66","776546","0.0-3.0-63.0","","6189-3","""fragile""","""yawayawa.wav""","90","fragile","RNAdj","same","0","T","fragile","Y","3"
"","1780","same-different-html","67","781332","0.0-3.0-64.0","","6189-3","""rash""","""zatsu.wav""","90","sloppy","NAdj","different","1","D","rash","Y","4"
"","1480","same-different-html","68","785820","0.0-3.0-65.0","","6189-3","""fragile""","""toku.wav""","90","beneficial","NAdj","different","1","D","fragile","Y","5"
"","1734","same-different-html","69","790560","0.0-3.0-66.0","","6189-3","""agitated""","""hokahoka.wav""","191","steaming","RI","different","0","D","agitated","Y","6"
"","1420","same-different-html","70","794982","0.0-3.0-67.0","","6189-3","""agitated""","""hikuhiku.wav""","90","agitated","RI","same","0","T","agitated","Y","7"
"","1830","same-different-html","71","799814","0.0-3.0-68.0","","6189-3","""chatty""","""berabera.wav""","191","chatty","RI","same","1","T","chatty","Y","8"
"","1516","same-different-html","72","804332","0.0-3.0-69.0","","6189-3","""decisive""","""pishapisha.wav""","90","decisive","RNRI","same","0","T","decisive","Y","9"
"","1096","same-different-html","73","808441","0.0-3.0-70.0","","6189-3","""useless""","""dame.wav""","191","useless","NAdj","same","1","T","useless","Y","10"
"","1436","same-different-html","74","812879","0.0-3.0-71.0","","6189-3","""fast asleep""","""raku.wav""","90","comfortable","NAdj","different","1","D","fast asleep","Y","11"
"","1492","same-different-html","75","817373","0.0-3.0-72.0","","6189-3","""sudden""","""patapata.wav""","90","sudden","RNRI","same","0","T","sudden","Y","12"
"","1572","same-different-html","76","821947","0.0-3.0-73.0","","6189-3","""chatty""","""uki.wav""","191","happy","SRI","different","0","D","chatty","Y","13"
"","1377","same-different-html","77","826331","0.0-3.0-74.0","","6189-3","""gaping""","""poka.wav""","191","gaping","NRI","same","1","T","gaping","Y","14"
"","1099","same-different-html","78","830431","0.0-3.0-75.0","","6189-3","""beneficial""","""toku.wav""","191","beneficial","NAdj","same","1","T","beneficial","Y","15"
"","1719","same-different-html","79","835152","0.0-3.0-76.0","","6189-3","""rash""","""muchamucha.wav""","90","rash","RNAdj","same","0","T","rash","Y","16"
"","1560","same-different-html","80","839716","0.0-3.0-77.0","","6189-3","""crowded""","""shinnari.wav""","90","supple","NRI","different","1","D","crowded","Y","17"
"","1733","same-different-html","81","844456","0.0-3.0-78.0","","6189-3","""noisy""","""muchamucha.wav""","90","rash","RNAdj","different","1","D","noisy","Y","18"
"","1295","same-different-html","82","848753","0.0-3.0-79.0","","6189-3","""useless""","""gussurigussuri.wav""","90","fast asleep","RNRI","different","1","D","useless","Y","19"
"","2066","same-different-html","83","853822","0.0-3.0-80.0","","6189-3","""steaming""","""hokahoka.wav""","90","steaming","RI","same","0","T","steaming","Y","20"
"","1717","same-different-html","84","858540","0.0-3.0-81.0","","6189-3","""offended""","""hikuhiku.wav""","191","agitated","RI","different","0","D","offended","Y","21"
"","1533","same-different-html","85","863084","0.0-3.0-82.0","","6189-3","""fat""","""debudebu.wav""","90","fat","RI","same","0","T","fat","Y","22"
"","1500","same-different-html","86","867589","0.0-3.0-83.0","","6189-3","""chubby""","""bakabaka.wav""","90","stupid","RNAdj","different","1","D","chubby","Y","23"
"","1375","same-different-html","87","871967","0.0-3.0-84.0","","6189-3","""offended""","""kachin.wav""","191","offended","NRI","same","1","T","offended","Y","24"
"","1372","same-different-html","88","876348","0.0-3.0-85.0","","6189-3","""sloppy""","""zatsu.wav""","191","sloppy","NAdj","same","1","T","sloppy","Y","25"
"","1258","same-different-html","89","880615","0.0-3.0-86.0","","6189-3","""beneficial""","""buku.wav""","90","chubby","SRI","different","1","D","beneficial","Y","26"
"","1599","same-different-html","90","885215","0.0-3.0-87.0","","6189-3","""steaming""","""pishapisha.wav""","90","decisive","RNRI","different","1","D","steaming","Y","27"
"","1585","same-different-html","91","889803","0.0-3.0-88.0","","6189-3","""fat""","""dame.wav""","90","useless","NAdj","different","1","D","fat","Y","28"
"","1635","same-different-html","92","894441","0.0-3.0-89.0","","6189-3","""crowded""","""bisshiri.wav""","90","crowded","NRI","same","0","T","crowded","Y","29"
"","1578","same-different-html","93","899024","0.0-3.0-90.0","","6189-3","""humid""","""bisshiri.wav""","90","crowded","NRI","different","1","D","humid","Y","30"
"","1285","same-different-html","94","903310","0.0-3.0-91.0","","6189-3","""stupid""","""bakabaka.wav""","191","stupid","RNAdj","same","1","T","stupid","Y","31"
"","1638","same-different-html","95","907951","0.0-3.0-92.0","","6189-3","""decisive""","""gosogoso.wav""","90","whole","RNRI","different","1","D","decisive","Y","32"
"","1616","same-different-html","96","912570","0.0-3.0-93.0","","6189-3","""comfortable""","""raku.wav""","90","comfortable","NAdj","same","0","T","comfortable","Y","33"
"","1329","same-different-html","97","916900","0.0-3.0-94.0","","6189-3","""sloppy""","""mushi.wav""","90","humid","SRI","different","1","D","sloppy","Y","34"
"","1307","same-different-html","98","921210","0.0-3.0-95.0","","6189-3","""supple""","""gaya.wav""","191","noisy","SRI","different","0","D","supple","Y","35"
"","1504","same-different-html","99","925716","0.0-3.0-96.0","","6189-3","""happy""","""patapata.wav""","90","sudden","RNRI","different","1","D","happy","Y","36"
"","1160","same-different-html","100","929880","0.0-3.0-97.0","","6189-3","""stupid""","""poka.wav""","90","gaping","NRI","different","1","D","stupid","Y","37"
"","1614","same-different-html","101","934500","0.0-3.0-98.0","","6189-3","""gaudy""","""kabikabi.wav""","90","gaudy","RNAdj","same","0","T","gaudy","Y","38"
"","1315","same-different-html","102","938817","0.0-3.0-99.0","","6189-3","""noisy""","""gaya.wav""","90","noisy","SRI","same","0","T","noisy","Y","39"
"","1601","same-different-html","103","943424","0.0-3.0-100.0","","6189-3","""gaping""","""debudebu.wav""","191","fat","RI","different","0","D","gaping","Y","40"
"","1940","same-different-html","104","948368","0.0-3.0-101.0","","6189-3","""fast asleep""","""gussurigussuri.wav""","191","fast asleep","RNRI","same","1","T","fast asleep","Y","41"
"","1631","same-different-html","105","953002","0.0-3.0-102.0","","6189-3","""whole""","""berabera.wav""","90","chatty","RI","different","1","D","whole","Y","42"
"","1386","same-different-html","106","957393","0.0-3.0-103.0","","6189-3","""sudden""","""yawayawa.wav""","90","fragile","RNAdj","different","1","D","sudden","Y","43"
"","1523","same-different-html","107","961918","0.0-3.0-104.0","","6189-3","""chubby""","""buku.wav""","191","chubby","SRI","same","1","T","chubby","Y","44"
"","1483","same-different-html","108","966407","0.0-3.0-105.0","","6189-3","""happy""","""uki.wav""","191","happy","SRI","same","1","T","happy","Y","45"
"","1527","same-different-html","109","970943","0.0-3.0-106.0","","6189-3","""supple""","""shinnari.wav""","90","supple","NRI","same","0","T","supple","Y","46"
"","1457","same-different-html","110","975403","0.0-3.0-107.0","","6189-3","""whole""","""gosogoso.wav""","90","whole","RNRI","same","0","T","whole","Y","47"
"","1053","same-different-html","111","979458","0.0-3.0-108.0","","6189-3","""humid""","""mushi.wav""","191","humid","SRI","same","1","T","humid","Y","48"
"[{""page_index"":0,""viewing_time"":3558}]","3558","instructions","112","984017","0.0-3.0-109.0","","","","","","","","","","","","",""
