"view_history","rt","trial_type","trial_index","time_elapsed","internal_node_id","responses","Id","word","sound","key_press","TrueMeaning","WordType","answer","correct","TrialType","TargetMeaning","LegalTrial","trialNum"
"[{""page_index"":0,""viewing_time"":3304}]","3305","instructions","0","3305","0.0-0.0","","","","","","","","","","","","",""
"[{""page_index"":0,""viewing_time"":2230},{""page_index"":1,""viewing_time"":2273},{""page_index"":2,""viewing_time"":2836},{""page_index"":3,""viewing_time"":2250},{""page_index"":4,""viewing_time"":38880}]","48469","instructions","1","51775","0.0-1.0","","","","","","","","","","","","",""
"","9121","survey-multi-choice","2","60904","0.0-2.0","{""Q0"":""Yes"",""Q1"":""Yes"",""Q2"":""Yes"",""Q3"":""Yes"",""Q4"":""Yes""}","","","","","","","","","","","",""
"[{""page_index"":0,""viewing_time"":1503},{""page_index"":1,""viewing_time"":3584}]","5087","instructions","3","65991","0.0-3.0-0.0","","","","","","","","","","","","",""
"","4266","same-different-html-trial","4","76266","0.0-3.0-1.0","","0","""sushi""","""prc_sushi.wav""","32","","","","","","","",""
"[{""page_index"":0,""viewing_time"":5624}]","5625","instructions","5","82891","0.0-3.0-2.0","","","","","","","","","","","","",""
"","2029","same-different-html","6","86922","0.0-3.0-3.0","","0","""sushi""","""prc_sushi.wav""","191","","","same","1","","","0",""
"[{""page_index"":0,""viewing_time"":3204}]","3204","instructions","7","91126","0.0-3.0-4.0","","","","","","","","","","","","",""
"","1339","same-different-html","8","94467","0.0-3.0-5.0","","0","""cat""","""prc_sushi.wav""","90","","","different","1","","","0",""
"[{""page_index"":0,""viewing_time"":2609},{""page_index"":1,""viewing_time"":6131}]","8740","instructions","9","104208","0.0-3.0-6.0","","","","","","","","","","","","",""
"","2358","same-different-html-trial","10","112581","0.0-3.0-7.0","","0","""thank you""","""prc_arigato.wav""","32","","","","","","","",""
"[{""page_index"":0,""viewing_time"":6049}]","6051","instructions","11","119633","0.0-3.0-8.0","","","","","","","","","","","","",""
"","3446","same-different-html","12","125079","0.0-3.0-9.0","","0","""thank you""","""prc_arigato.wav""","191","","","same","1","","","0",""
"","1722","same-different-html","13","129805","0.0-3.0-10.0","","0","""cat""","""prc_arigato.wav""","90","","","different","1","","","0",""
"[{""page_index"":0,""viewing_time"":2986},{""page_index"":1,""viewing_time"":3806}]","6792","instructions","14","137597","0.0-3.0-11.0","","","","","","","","","","","","",""
"","5196","same-different-html-trial","15","148796","0.0-3.0-12.0","","3478-5","""vulgar""","""zokuzoku.wav""","32","vulgar","RNAdj","","","","","","1"
"","2512","same-different-html-trial","16","158312","0.0-3.0-13.0","","3478-5","""whole""","""goso.wav""","32","whole","NRI","","","","","","2"
"","2545","same-different-html-trial","17","167858","0.0-3.0-14.0","","3478-5","""gaping""","""pokapoka.wav""","32","gaping","RNRI","","","","","","3"
"","3127","same-different-html-trial","18","177987","0.0-3.0-15.0","","3478-5","""crowded""","""bisshiribisshiri.wav""","32","crowded","RNRI","","","","","","4"
"","2763","same-different-html-trial","19","187755","0.0-3.0-16.0","","3478-5","""suspenseful""","""harahara.wav""","32","suspenseful","RI","","","","","","5"
"","2702","same-different-html-trial","20","197459","0.0-3.0-17.0","","3478-5","""comfortable""","""rakuraku.wav""","32","comfortable","RNAdj","","","","","","6"
"","4356","same-different-html-trial","21","208817","0.0-3.0-18.0","","3478-5","""agitated""","""hiku.wav""","32","agitated","SRI","","","","","","7"
"","2295","same-different-html-trial","22","218114","0.0-3.0-19.0","","3478-5","""gaudy""","""kabi.wav""","32","gaudy","NAdj","","","","","","8"
"","2651","same-different-html-trial","23","227769","0.0-3.0-20.0","","3478-5","""perfect""","""batchiri.wav""","32","perfect","NRI","","","","","","9"
"","3420","same-different-html-trial","24","238191","0.0-3.0-21.0","","3478-5","""hesitant""","""mojimoji.wav""","32","hesitant","RI","","","","","","10"
"","3621","same-different-html-trial","25","248816","0.0-3.0-22.0","","3478-5","""careful""","""jikkuri.wav""","32","careful","NRI","","","","","","11"
"","2219","same-different-html-trial","26","258047","0.0-3.0-23.0","","3478-5","""sturdy""","""gashigashi.wav""","32","sturdy","RNRI","","","","","","12"
"","1789","same-different-html-trial","27","266838","0.0-3.0-24.0","","3478-5","""excessive""","""kadokado.wav""","32","excessive","RNAdj","","","","","","13"
"","1643","same-different-html-trial","28","275484","0.0-3.0-25.0","","3478-5","""happy""","""uki.wav""","32","happy","SRI","","","","","","14"
"","2318","same-different-html-trial","29","284805","0.0-3.0-26.0","","3478-5","""subdued""","""jimi.wav""","32","subdued","NAdj","","","","","","15"
"","2247","same-different-html-trial","30","294056","0.0-3.0-27.0","","3478-5","""noisy""","""gayagaya.wav""","32","noisy","RI","","","","","","16"
"","2377","same-different-html-trial","31","303434","0.0-3.0-28.0","","3478-5","""clear""","""kukkiri.wav""","32","clear","NRI","","","","","","17"
"","3096","same-different-html-trial","32","313532","0.0-3.0-29.0","","3478-5","""deficient""","""fubifubi.wav""","32","deficient","RNAdj","","","","","","18"
"","4789","same-different-html-trial","33","325323","0.0-3.0-30.0","","3478-5","""fast asleep""","""gussurigussuri.wav""","32","fast asleep","RNRI","","","","","","19"
"","2568","same-different-html-trial","34","334896","0.0-3.0-31.0","","3478-5","""wobbly""","""yura.wav""","32","wobbly","SRI","","","","","","20"
"","1814","same-different-html-trial","35","343713","0.0-3.0-32.0","","3478-5","""shivering""","""buru.wav""","32","shivering","SRI","","","","","","21"
"","3048","same-different-html-trial","36","353764","0.0-3.0-33.0","","3478-5","""useless""","""dame.wav""","32","useless","NAdj","","","","","","22"
"","501","same-different-html-trial","37","361268","0.0-3.0-34.0","","3478-5","""rude""","""zukezuke.wav""","32","rude","RI","","","","","","23"
"","1829","same-different-html-trial","38","370101","0.0-3.0-35.0","","3478-5","""rash""","""mucha.wav""","32","rash","NAdj","","","","","","24"
"","2944","same-different-html-trial","39","380048","0.0-3.0-36.0","","3478-5","""wobbly""","""yura.wav""","32","wobbly","SRI","","","","","","25"
"","2862","same-different-html-trial","40","389914","0.0-3.0-37.0","","3478-5","""hesitant""","""mojimoji.wav""","32","hesitant","RI","","","","","","26"
"","2727","same-different-html-trial","41","399643","0.0-3.0-38.0","","3478-5","""subdued""","""jimi.wav""","32","subdued","NAdj","","","","","","27"
"","2452","same-different-html-trial","42","409098","0.0-3.0-39.0","","3478-5","""gaudy""","""kabi.wav""","32","gaudy","NAdj","","","","","","28"
"","2870","same-different-html-trial","43","418971","0.0-3.0-40.0","","3478-5","""vulgar""","""zokuzoku.wav""","32","vulgar","RNAdj","","","","","","29"
"","2982","same-different-html-trial","44","428955","0.0-3.0-41.0","","3478-5","""clear""","""kukkiri.wav""","32","clear","NRI","","","","","","30"
"","2882","same-different-html-trial","45","438840","0.0-3.0-42.0","","3478-5","""suspenseful""","""harahara.wav""","32","suspenseful","RI","","","","","","31"
"","3097","same-different-html-trial","46","448938","0.0-3.0-43.0","","3478-5","""fast asleep""","""gussurigussuri.wav""","32","fast asleep","RNRI","","","","","","32"
"","4898","same-different-html-trial","47","460838","0.0-3.0-44.0","","3478-5","""noisy""","""gayagaya.wav""","32","noisy","RI","","","","","","33"
"","2926","same-different-html-trial","48","470766","0.0-3.0-45.0","","3478-5","""perfect""","""batchiri.wav""","32","perfect","NRI","","","","","","34"
"","2688","same-different-html-trial","49","480456","0.0-3.0-46.0","","3478-5","""careful""","""jikkuri.wav""","32","careful","NRI","","","","","","35"
"","15","same-different-html-trial","50","487473","0.0-3.0-47.0","","3478-5","""crowded""","""bisshiribisshiri.wav""","32","crowded","RNRI","","","","","","36"
"","3852","same-different-html-trial","51","498327","0.0-3.0-48.0","","3478-5","""gaping""","""pokapoka.wav""","32","gaping","RNRI","","","","","","37"
"","2936","same-different-html-trial","52","508266","0.0-3.0-49.0","","3478-5","""happy""","""uki.wav""","32","happy","SRI","","","","","","38"
"","3919","same-different-html-trial","53","519187","0.0-3.0-50.0","","3478-5","""rash""","""mucha.wav""","32","rash","NAdj","","","","","","39"
"","2910","same-different-html-trial","54","529099","0.0-3.0-51.0","","3478-5","""sturdy""","""gashigashi.wav""","32","sturdy","RNRI","","","","","","40"
"","3541","same-different-html-trial","55","539643","0.0-3.0-52.0","","3478-5","""comfortable""","""rakuraku.wav""","32","comfortable","RNAdj","","","","","","41"
"","3085","same-different-html-trial","56","549730","0.0-3.0-53.0","","3478-5","""whole""","""goso.wav""","32","whole","NRI","","","","","","42"
"","3547","same-different-html-trial","57","560280","0.0-3.0-54.0","","3478-5","""shivering""","""buru.wav""","32","shivering","SRI","","","","","","43"
"","4531","same-different-html-trial","58","571814","0.0-3.0-55.0","","3478-5","""deficient""","""fubifubi.wav""","32","deficient","RNAdj","","","","","","44"
"","4841","same-different-html-trial","59","583659","0.0-3.0-56.0","","3478-5","""excessive""","""kadokado.wav""","32","excessive","RNAdj","","","","","","45"
"","2535","same-different-html-trial","60","593197","0.0-3.0-57.0","","3478-5","""agitated""","""hiku.wav""","32","agitated","SRI","","","","","","46"
"","2686","same-different-html-trial","61","602886","0.0-3.0-58.0","","3478-5","""rude""","""zukezuke.wav""","32","rude","RI","","","","","","47"
"","2006","same-different-html-trial","62","611896","0.0-3.0-59.0","","3478-5","""useless""","""dame.wav""","32","useless","NAdj","","","","","","48"
"[{""page_index"":0,""viewing_time"":11836}]","11837","instructions","63","624732","0.0-3.0-60.0","","","","","","","","","","","","",""
"","2434","same-different-html","64","629168","0.0-3.0-61.0","","3478-5","""careful""","""rakuraku.wav""","191","comfortable","RNAdj","different","0","D","careful","Y","1"
"","2245","same-different-html","65","634414","0.0-3.0-62.0","","3478-5","""crowded""","""bisshiribisshiri.wav""","90","crowded","RNRI","same","0","T","crowded","Y","2"
"","1294","same-different-html","66","638709","0.0-3.0-63.0","","3478-5","""happy""","""uki.wav""","90","happy","SRI","same","0","T","happy","Y","3"
"","1570","same-different-html","67","643280","0.0-3.0-64.0","","3478-5","""subdued""","""bisshiribisshiri.wav""","191","crowded","RNRI","different","0","D","subdued","Y","4"
"","1137","same-different-html","68","647418","0.0-3.0-65.0","","3478-5","""gaping""","""kabi.wav""","191","gaudy","NAdj","different","0","D","gaping","Y","5"
"","1872","same-different-html","69","652292","0.0-3.0-66.0","","3478-5","""comfortable""","""yura.wav""","191","wobbly","SRI","different","0","D","comfortable","Y","6"
"","1630","same-different-html","70","656923","0.0-3.0-67.0","","3478-5","""hesitant""","""mojimoji.wav""","90","hesitant","RI","same","0","T","hesitant","Y","7"
"","1712","same-different-html","71","661636","0.0-3.0-68.0","","3478-5","""whole""","""uki.wav""","191","happy","SRI","different","0","D","whole","Y","8"
"","6461","same-different-html","72","671098","0.0-3.0-69.0","","3478-5","""deficient""","""fubifubi.wav""","191","deficient","RNAdj","same","1","T","deficient","Y","9"
"","2666","same-different-html","73","676768","0.0-3.0-70.0","","3478-5","""hesitant""","""gashigashi.wav""","90","sturdy","RNRI","different","1","D","hesitant","Y","10"
"","2071","same-different-html","74","681839","0.0-3.0-71.0","","3478-5","""comfortable""","""rakuraku.wav""","191","comfortable","RNAdj","same","1","T","comfortable","Y","11"
"","2668","same-different-html","75","687508","0.0-3.0-72.0","","3478-5","""noisy""","""gayagaya.wav""","90","noisy","RI","same","0","T","noisy","Y","12"
"","1605","same-different-html","76","692115","0.0-3.0-73.0","","3478-5","""whole""","""goso.wav""","191","whole","NRI","same","1","T","whole","Y","13"
"","1716","same-different-html","77","696832","0.0-3.0-74.0","","3478-5","""excessive""","""fubifubi.wav""","191","deficient","RNAdj","different","0","D","excessive","Y","14"
"","1598","same-different-html","78","701432","0.0-3.0-75.0","","3478-5","""agitated""","""hiku.wav""","191","agitated","SRI","same","1","T","agitated","Y","15"
"","1534","same-different-html","79","705983","0.0-3.0-76.0","","3478-5","""rash""","""mucha.wav""","90","rash","NAdj","same","0","T","rash","Y","16"
"","1652","same-different-html","80","710638","0.0-3.0-77.0","","3478-5","""excessive""","""kadokado.wav""","191","excessive","RNAdj","same","1","T","excessive","Y","17"
"","2152","same-different-html","81","715792","0.0-3.0-78.0","","3478-5","""fast asleep""","""gussurigussuri.wav""","191","fast asleep","RNRI","same","1","T","fast asleep","Y","18"
"","2117","same-different-html","82","720910","0.0-3.0-79.0","","3478-5","""wobbly""","""zukezuke.wav""","191","rude","RI","different","0","D","wobbly","Y","19"
"","1962","same-different-html","83","725874","0.0-3.0-80.0","","3478-5","""sturdy""","""gashigashi.wav""","90","sturdy","RNRI","same","0","T","sturdy","Y","20"
"","3070","same-different-html","84","731945","0.0-3.0-81.0","","3478-5","""clear""","""kukkiri.wav""","90","clear","NRI","same","0","T","clear","Y","21"
"","1869","same-different-html","85","736816","0.0-3.0-82.0","","3478-5","""clear""","""jimi.wav""","90","subdued","NAdj","different","1","D","clear","Y","22"
"","1294","same-different-html","86","741112","0.0-3.0-83.0","","3478-5","""vulgar""","""hiku.wav""","90","agitated","SRI","different","1","D","vulgar","Y","23"
"","1561","same-different-html","87","745675","0.0-3.0-84.0","","3478-5","""perfect""","""batchiri.wav""","191","perfect","NRI","same","1","T","perfect","Y","24"
"","1935","same-different-html","88","750611","0.0-3.0-85.0","","3478-5","""careful""","""jikkuri.wav""","191","careful","NRI","same","1","T","careful","Y","25"
"","3391","same-different-html","89","757006","0.0-3.0-86.0","","3478-5","""gaudy""","""gussurigussuri.wav""","90","fast asleep","RNRI","different","1","D","gaudy","Y","26"
"","1764","same-different-html","90","761770","0.0-3.0-87.0","","3478-5","""wobbly""","""yura.wav""","191","wobbly","SRI","same","1","T","wobbly","Y","27"
"","2436","same-different-html","91","767208","0.0-3.0-88.0","","3478-5","""deficient""","""batchiri.wav""","90","perfect","NRI","different","1","D","deficient","Y","28"
"","2163","same-different-html","92","772372","0.0-3.0-89.0","","3478-5","""noisy""","""kukkiri.wav""","90","clear","NRI","different","1","D","noisy","Y","29"
"","1483","same-different-html","93","776858","0.0-3.0-90.0","","3478-5","""rude""","""pokapoka.wav""","90","gaping","RNRI","different","1","D","rude","Y","30"
"","1612","same-different-html","94","781470","0.0-3.0-91.0","","3478-5","""rude""","""zukezuke.wav""","191","rude","RI","same","1","T","rude","Y","31"
"","3256","same-different-html","95","787728","0.0-3.0-92.0","","3478-5","""perfect""","""gayagaya.wav""","90","noisy","RI","different","1","D","perfect","Y","32"
"","1565","same-different-html","96","792294","0.0-3.0-93.0","","3478-5","""shivering""","""buru.wav""","90","shivering","SRI","same","0","T","shivering","Y","33"
"","1649","same-different-html","97","796945","0.0-3.0-94.0","","3478-5","""suspenseful""","""mojimoji.wav""","191","hesitant","RI","different","0","D","suspenseful","Y","34"
"","1692","same-different-html","98","801638","0.0-3.0-95.0","","3478-5","""suspenseful""","""harahara.wav""","90","suspenseful","RI","same","0","T","suspenseful","Y","35"
"","1597","same-different-html","99","806237","0.0-3.0-96.0","","3478-5","""vulgar""","""zokuzoku.wav""","191","vulgar","RNAdj","same","1","T","vulgar","Y","36"
"","2150","same-different-html","100","811389","0.0-3.0-97.0","","3478-5","""sturdy""","""harahara.wav""","191","suspenseful","RI","different","0","D","sturdy","Y","37"
"","2039","same-different-html","101","816429","0.0-3.0-98.0","","3478-5","""fast asleep""","""zokuzoku.wav""","90","vulgar","RNAdj","different","1","D","fast asleep","Y","38"
"","1685","same-different-html","102","821116","0.0-3.0-99.0","","3478-5","""subdued""","""jimi.wav""","191","subdued","NAdj","same","1","T","subdued","Y","39"
"","1377","same-different-html","103","825495","0.0-3.0-100.0","","3478-5","""gaudy""","""kabi.wav""","191","gaudy","NAdj","same","1","T","gaudy","Y","40"
"","1529","same-different-html","104","830027","0.0-3.0-101.0","","3478-5","""crowded""","""goso.wav""","191","whole","NRI","different","0","D","crowded","Y","41"
"","2649","same-different-html","105","835678","0.0-3.0-102.0","","3478-5","""shivering""","""jikkuri.wav""","191","careful","NRI","different","0","D","shivering","Y","42"
"","1198","same-different-html","106","839878","0.0-3.0-103.0","","3478-5","""useless""","""dame.wav""","191","useless","NAdj","same","1","T","useless","Y","43"
"","1185","same-different-html","107","844064","0.0-3.0-104.0","","3478-5","""agitated""","""mucha.wav""","90","rash","NAdj","different","1","D","agitated","Y","44"
"","1335","same-different-html","108","848400","0.0-3.0-105.0","","3478-5","""rash""","""dame.wav""","90","useless","NAdj","different","1","D","rash","Y","45"
"","2159","same-different-html","109","853561","0.0-3.0-106.0","","3478-5","""happy""","""buru.wav""","90","shivering","SRI","different","1","D","happy","Y","46"
"","1283","same-different-html","110","857846","0.0-3.0-107.0","","3478-5","""gaping""","""pokapoka.wav""","191","gaping","RNRI","same","1","T","gaping","Y","47"
"","1369","same-different-html","111","862216","0.0-3.0-108.0","","3478-5","""useless""","""kadokado.wav""","90","excessive","RNAdj","different","1","D","useless","Y","48"
"[{""page_index"":0,""viewing_time"":35584}]","35584","instructions","112","898800","0.0-3.0-109.0","","","","","","","","","","","","",""
