"view_history","rt","trial_type","trial_index","time_elapsed","internal_node_id","responses","Id","word","sound","key_press","TrueMeaning","WordType","answer","correct","TrialType","TargetMeaning","LegalTrial","trialNum"
"[{""page_index"":0,""viewing_time"":7567}]","7567","instructions","0","7571","0.0-0.0","","","","","","","","","","","","",""
"[{""page_index"":0,""viewing_time"":2563},{""page_index"":1,""viewing_time"":5870},{""page_index"":2,""viewing_time"":4360},{""page_index"":3,""viewing_time"":11207},{""page_index"":4,""viewing_time"":48888}]","72888","instructions","1","80467","0.0-1.0","","","","","","","","","","","","",""
"","19147","survey-multi-choice","2","99628","0.0-2.0","{""Q0"":""Yes"",""Q1"":""Yes"",""Q2"":""Yes"",""Q3"":""Yes"",""Q4"":""Yes""}","","","","","","","","","","","",""
"[{""page_index"":0,""viewing_time"":4832},{""page_index"":1,""viewing_time"":8265}]","13098","instructions","3","112730","0.0-3.0-0.0","","","","","","","","","","","","",""
"","2529","same-different-html-trial","4","121274","0.0-3.0-1.0","","0","""sushi""","""prc_sushi.wav""","32","","","","","","","",""
"[{""page_index"":0,""viewing_time"":9396}]","9396","instructions","5","131672","0.0-3.0-2.0","","","","","","","","","","","","",""
"","5079","same-different-html","6","138758","0.0-3.0-3.0","","0","""sushi""","""prc_sushi.wav""","191","","","same","1","","","0",""
"[{""page_index"":0,""viewing_time"":4466}]","4466","instructions","7","144225","0.0-3.0-4.0","","","","","","","","","","","","",""
"","4857","same-different-html","8","151090","0.0-3.0-5.0","","0","""cat""","""prc_sushi.wav""","90","","","different","1","","","0",""
"[{""page_index"":0,""viewing_time"":5452},{""page_index"":1,""viewing_time"":1761}]","7213","instructions","9","159304","0.0-3.0-6.0","","","","","","","","","","","","",""
"","2111","same-different-html-trial","10","167425","0.0-3.0-7.0","","0","""thank you""","""prc_arigato.wav""","32","","","","","","","",""
"[{""page_index"":0,""viewing_time"":3446}]","3446","instructions","11","171873","0.0-3.0-8.0","","","","","","","","","","","","",""
"","25259","same-different-html","12","199136","0.0-3.0-9.0","","0","""thank you""","""prc_arigato.wav""","191","","","same","1","","","0",""
"","2970","same-different-html","13","205112","0.0-3.0-10.0","","0","""cat""","""prc_arigato.wav""","90","","","different","1","","","0",""
"[{""page_index"":0,""viewing_time"":3032},{""page_index"":1,""viewing_time"":24751}]","27783","instructions","14","233895","0.0-3.0-11.0","","","","","","","","","","","","",""
"","2179","same-different-html-trial","15","242082","0.0-3.0-12.0","","8697-9","""hesitant""","""moji.wav""","32","hesitant","SRI","","","","","","1"
"","1775","same-different-html-trial","16","250865","0.0-3.0-13.0","","8697-9","""subdued""","""jimi.wav""","32","subdued","NAdj","","","","","","2"
"","2338","same-different-html-trial","17","260227","0.0-3.0-14.0","","8697-9","""vulgar""","""zokuzoku.wav""","32","vulgar","RNAdj","","","","","","3"
"","2421","same-different-html-trial","18","269657","0.0-3.0-15.0","","8697-9","""decisive""","""pishapisha.wav""","32","decisive","RNRI","","","","","","4"
"","2315","same-different-html-trial","19","278977","0.0-3.0-16.0","","8697-9","""rude""","""zukezuke.wav""","32","rude","RI","","","","","","5"
"","2183","same-different-html-trial","20","288168","0.0-3.0-17.0","","8697-9","""tasteless""","""yabo.wav""","32","tasteless","NAdj","","","","","","6"
"","2524","same-different-html-trial","21","297702","0.0-3.0-18.0","","8697-9","""clear""","""kukkirikukkiri.wav""","32","clear","RNRI","","","","","","7"
"","2087","same-different-html-trial","22","306797","0.0-3.0-19.0","","8697-9","""sullen""","""musumusu.wav""","32","sullen","RNRI","","","","","","8"
"","2128","same-different-html-trial","23","315936","0.0-3.0-20.0","","8697-9","""gaudy""","""kabi.wav""","32","gaudy","NAdj","","","","","","9"
"","2534","same-different-html-trial","24","325476","0.0-3.0-21.0","","8697-9","""free""","""hima.wav""","32","free","NAdj","","","","","","10"
"","1955","same-different-html-trial","25","334434","0.0-3.0-22.0","","8697-9","""energetic""","""kibi.wav""","32","energetic","SRI","","","","","","11"
"","2515","same-different-html-trial","26","343956","0.0-3.0-23.0","","8697-9","""to change ocmpletely""","""garagara.wav""","32","to change ocmpletely","RNRI","","","","","","12"
"","2096","same-different-html-trial","27","353064","0.0-3.0-24.0","","8697-9","""impossible""","""murimuri.wav""","32","impossible","RNAdj","","","","","","13"
"","1891","same-different-html-trial","28","361958","0.0-3.0-25.0","","8697-9","""sturdy""","""gashi.wav""","32","sturdy","NRI","","","","","","14"
"","2524","same-different-html-trial","29","371492","0.0-3.0-26.0","","8697-9","""pure""","""mukumuku.wav""","32","pure","RNAdj","","","","","","15"
"","2151","same-different-html-trial","30","380648","0.0-3.0-27.0","","8697-9","""wobbly""","""yurayura.wav""","32","wobbly","RI","","","","","","16"
"","2192","same-different-html-trial","31","389852","0.0-3.0-28.0","","8697-9","""resolute""","""bassari.wav""","32","resolute","NRI","","","","","","17"
"","2560","same-different-html-trial","32","399416","0.0-3.0-29.0","","8697-9","""comfortable""","""rakuraku.wav""","32","comfortable","RNAdj","","","","","","18"
"","2191","same-different-html-trial","33","408614","0.0-3.0-30.0","","8697-9","""shivering""","""buruburu.wav""","32","shivering","RI","","","","","","19"
"","2415","same-different-html-trial","34","418036","0.0-3.0-31.0","","8697-9","""fast asleep""","""gussuri.wav""","32","fast asleep","NRI","","","","","","20"
"","1706","same-different-html-trial","35","426747","0.0-3.0-32.0","","8697-9","""humid""","""mushi.wav""","32","humid","SRI","","","","","","21"
"","2421","same-different-html-trial","36","436175","0.0-3.0-33.0","","8697-9","""worn out""","""boroboro.wav""","32","worn out","RI","","","","","","22"
"","2831","same-different-html-trial","37","446012","0.0-3.0-34.0","","8697-9","""smooth""","""nopperi.wav""","32","smooth","NRI","","","","","","23"
"","2075","same-different-html-trial","38","455092","0.0-3.0-35.0","","8697-9","""fat""","""debu.wav""","32","fat","SRI","","","","","","24"
"","2259","same-different-html-trial","39","464359","0.0-3.0-36.0","","8697-9","""free""","""hima.wav""","32","free","NAdj","","","","","","25"
"","2037","same-different-html-trial","40","473421","0.0-3.0-37.0","","8697-9","""pure""","""mukumuku.wav""","32","pure","RNAdj","","","","","","26"
"","2554","same-different-html-trial","41","482982","0.0-3.0-38.0","","8697-9","""subdued""","""jimi.wav""","32","subdued","NAdj","","","","","","27"
"","2511","same-different-html-trial","42","492505","0.0-3.0-39.0","","8697-9","""rude""","""zukezuke.wav""","32","rude","RI","","","","","","28"
"","2803","same-different-html-trial","43","502313","0.0-3.0-40.0","","8697-9","""energetic""","""kibi.wav""","32","energetic","SRI","","","","","","29"
"","2012","same-different-html-trial","44","511330","0.0-3.0-41.0","","8697-9","""comfortable""","""rakuraku.wav""","32","comfortable","RNAdj","","","","","","30"
"","2312","same-different-html-trial","45","520650","0.0-3.0-42.0","","8697-9","""wobbly""","""yurayura.wav""","32","wobbly","RI","","","","","","31"
"","4809","same-different-html-trial","46","532468","0.0-3.0-43.0","","8697-9","""decisive""","""pishapisha.wav""","32","decisive","RNRI","","","","","","32"
"","1732","same-different-html-trial","47","541204","0.0-3.0-44.0","","8697-9","""fat""","""debu.wav""","32","fat","SRI","","","","","","33"
"","3069","same-different-html-trial","48","551281","0.0-3.0-45.0","","8697-9","""humid""","""mushi.wav""","32","humid","SRI","","","","","","34"
"","2765","same-different-html-trial","49","561051","0.0-3.0-46.0","","8697-9","""clear""","""kukkirikukkiri.wav""","32","clear","RNRI","","","","","","35"
"","2803","same-different-html-trial","50","570871","0.0-3.0-47.0","","8697-9","""shivering""","""buruburu.wav""","32","shivering","RI","","","","","","36"
"","2228","same-different-html-trial","51","580110","0.0-3.0-48.0","","8697-9","""smooth""","""nopperi.wav""","32","smooth","NRI","","","","","","37"
"","3068","same-different-html-trial","52","590184","0.0-3.0-49.0","","8697-9","""resolute""","""bassari.wav""","32","resolute","NRI","","","","","","38"
"","4207","same-different-html-trial","53","601395","0.0-3.0-50.0","","8697-9","""impossible""","""murimuri.wav""","32","impossible","RNAdj","","","","","","39"
"","2445","same-different-html-trial","54","610845","0.0-3.0-51.0","","8697-9","""worn out""","""boroboro.wav""","32","worn out","RI","","","","","","40"
"","2641","same-different-html-trial","55","620493","0.0-3.0-52.0","","8697-9","""vulgar""","""zokuzoku.wav""","32","vulgar","RNAdj","","","","","","41"
"","2752","same-different-html-trial","56","630256","0.0-3.0-53.0","","8697-9","""fast asleep""","""gussuri.wav""","32","fast asleep","NRI","","","","","","42"
"","1811","same-different-html-trial","57","639075","0.0-3.0-54.0","","8697-9","""sturdy""","""gashi.wav""","32","sturdy","NRI","","","","","","43"
"","2248","same-different-html-trial","58","648333","0.0-3.0-55.0","","8697-9","""sullen""","""musumusu.wav""","32","sullen","RNRI","","","","","","44"
"","1660","same-different-html-trial","59","656997","0.0-3.0-56.0","","8697-9","""hesitant""","""moji.wav""","32","hesitant","SRI","","","","","","45"
"","2404","same-different-html-trial","60","666409","0.0-3.0-57.0","","8697-9","""gaudy""","""kabi.wav""","32","gaudy","NAdj","","","","","","46"
"","2555","same-different-html-trial","61","675970","0.0-3.0-58.0","","8697-9","""to change ocmpletely""","""garagara.wav""","32","to change ocmpletely","RNRI","","","","","","47"
"","2010","same-different-html-trial","62","684987","0.0-3.0-59.0","","8697-9","""tasteless""","""yabo.wav""","32","tasteless","NAdj","","","","","","48"
"[{""page_index"":0,""viewing_time"":19052}]","19052","instructions","63","705040","0.0-3.0-60.0","","","","","","","","","","","","",""
"","5371","same-different-html","64","712415","0.0-3.0-61.0","","8697-9","""rude""","""murimuri.wav""","191","impossible","RNAdj","different","0","D","rude","Y","1"
"","4008","same-different-html","65","719428","0.0-3.0-62.0","","8697-9","""to change ocmpletely""","""garagara.wav""","90","to change ocmpletely","RNRI","same","0","T","to change ocmpletely","Y","2"
"","12501","same-different-html","66","734931","0.0-3.0-63.0","","8697-9","""fast asleep""","""zukezuke.wav""","191","rude","RI","different","0","D","fast asleep","Y","3"
"","3144","same-different-html","67","741077","0.0-3.0-64.0","","8697-9","""resolute""","""kibi.wav""","90","energetic","SRI","different","1","D","resolute","Y","4"
"","3498","same-different-html","68","747582","0.0-3.0-65.0","","8697-9","""free""","""boroboro.wav""","90","worn out","RI","different","1","D","free","Y","5"
"","2976","same-different-html","69","753565","0.0-3.0-66.0","","8697-9","""tasteless""","""nopperi.wav""","191","smooth","NRI","different","0","D","tasteless","Y","6"
"","3046","same-different-html","70","759617","0.0-3.0-67.0","","8697-9","""decisive""","""pishapisha.wav""","90","decisive","RNRI","same","0","T","decisive","Y","7"
"","3232","same-different-html","71","765855","0.0-3.0-68.0","","8697-9","""clear""","""yurayura.wav""","90","wobbly","RI","different","1","D","clear","Y","8"
"","3138","same-different-html","72","771997","0.0-3.0-69.0","","8697-9","""fast asleep""","""gussuri.wav""","191","fast asleep","NRI","same","1","T","fast asleep","Y","9"
"","3448","same-different-html","73","778449","0.0-3.0-70.0","","8697-9","""free""","""hima.wav""","191","free","NAdj","same","1","T","free","Y","10"
"","2959","same-different-html","74","784413","0.0-3.0-71.0","","8697-9","""to change ocmpletely""","""jimi.wav""","90","subdued","NAdj","different","1","D","to change ocmpletely","Y","11"
"","3310","same-different-html","75","790728","0.0-3.0-72.0","","8697-9","""humid""","""pishapisha.wav""","191","decisive","RNRI","different","0","D","humid","Y","12"
"","3934","same-different-html","76","797667","0.0-3.0-73.0","","8697-9","""wobbly""","""moji.wav""","90","hesitant","SRI","different","1","D","wobbly","Y","13"
"","3003","same-different-html","77","803674","0.0-3.0-74.0","","8697-9","""vulgar""","""mukumuku.wav""","191","pure","RNAdj","different","0","D","vulgar","Y","14"
"","3100","same-different-html","78","809776","0.0-3.0-75.0","","8697-9","""wobbly""","""yurayura.wav""","191","wobbly","RI","same","1","T","wobbly","Y","15"
"","3071","same-different-html","79","815853","0.0-3.0-76.0","","8697-9","""humid""","""mushi.wav""","90","humid","SRI","same","0","T","humid","Y","16"
"","2353","same-different-html","80","821211","0.0-3.0-77.0","","8697-9","""fat""","""gashi.wav""","90","sturdy","NRI","different","1","D","fat","Y","17"
"","2892","same-different-html","81","827108","0.0-3.0-78.0","","8697-9","""smooth""","""gussuri.wav""","90","fast asleep","NRI","different","1","D","smooth","Y","18"
"","3008","same-different-html","82","833118","0.0-3.0-79.0","","8697-9","""comfortable""","""rakuraku.wav""","191","comfortable","RNAdj","same","1","T","comfortable","Y","19"
"","3007","same-different-html","83","839138","0.0-3.0-80.0","","8697-9","""worn out""","""boroboro.wav""","191","worn out","RI","same","1","T","worn out","Y","20"
"","2956","same-different-html","84","845099","0.0-3.0-81.0","","8697-9","""impossible""","""murimuri.wav""","90","impossible","RNAdj","same","0","T","impossible","Y","21"
"","2918","same-different-html","85","851026","0.0-3.0-82.0","","8697-9","""pure""","""mukumuku.wav""","191","pure","RNAdj","same","1","T","pure","Y","22"
"","3182","same-different-html","86","857212","0.0-3.0-83.0","","8697-9","""smooth""","""nopperi.wav""","90","smooth","NRI","same","0","T","smooth","Y","23"
"","2931","same-different-html","87","863147","0.0-3.0-84.0","","8697-9","""sullen""","""musumusu.wav""","191","sullen","RNRI","same","1","T","sullen","Y","24"
"","3156","same-different-html","88","869305","0.0-3.0-85.0","","8697-9","""vulgar""","""zokuzoku.wav""","191","vulgar","RNAdj","same","1","T","vulgar","Y","25"
"","3158","same-different-html","89","875468","0.0-3.0-86.0","","8697-9","""tasteless""","""yabo.wav""","90","tasteless","NAdj","same","0","T","tasteless","Y","26"
"","3179","same-different-html","90","881650","0.0-3.0-87.0","","8697-9","""clear""","""kukkirikukkiri.wav""","191","clear","RNRI","same","1","T","clear","Y","27"
"","3103","same-different-html","91","887756","0.0-3.0-88.0","","8697-9","""resolute""","""bassari.wav""","191","resolute","NRI","same","1","T","resolute","Y","28"
"","2951","same-different-html","92","893708","0.0-3.0-89.0","","8697-9","""shivering""","""buruburu.wav""","191","shivering","RI","same","1","T","shivering","Y","29"
"","3612","same-different-html","93","900323","0.0-3.0-90.0","","8697-9","""gaudy""","""kabi.wav""","191","gaudy","NAdj","same","1","T","gaudy","Y","30"
"","2969","same-different-html","94","906305","0.0-3.0-91.0","","8697-9","""subdued""","""jimi.wav""","90","subdued","NAdj","same","0","T","subdued","Y","31"
"","2980","same-different-html","95","912292","0.0-3.0-92.0","","8697-9","""pure""","""rakuraku.wav""","191","comfortable","RNAdj","different","0","D","pure","Y","32"
"","2996","same-different-html","96","918294","0.0-3.0-93.0","","8697-9","""sturdy""","""zokuzoku.wav""","90","vulgar","RNAdj","different","1","D","sturdy","Y","33"
"","2797","same-different-html","97","924100","0.0-3.0-94.0","","8697-9","""sturdy""","""gashi.wav""","191","sturdy","NRI","same","1","T","sturdy","Y","34"
"","3314","same-different-html","98","930418","0.0-3.0-95.0","","8697-9","""worn out""","""musumusu.wav""","191","sullen","RNRI","different","0","D","worn out","Y","35"
"","3507","same-different-html","99","936928","0.0-3.0-96.0","","8697-9","""energetic""","""garagara.wav""","191","to change ocmpletely","RNRI","different","0","D","energetic","Y","36"
"","3164","same-different-html","100","943095","0.0-3.0-97.0","","8697-9","""fat""","""debu.wav""","191","fat","SRI","same","1","T","fat","Y","37"
"","3010","same-different-html","101","949108","0.0-3.0-98.0","","8697-9","""subdued""","""yabo.wav""","90","tasteless","NAdj","different","1","D","subdued","Y","38"
"","2874","same-different-html","102","954990","0.0-3.0-99.0","","8697-9","""gaudy""","""buruburu.wav""","90","shivering","RI","different","1","D","gaudy","Y","39"
"","3093","same-different-html","103","961086","0.0-3.0-100.0","","8697-9","""energetic""","""kibi.wav""","191","energetic","SRI","same","1","T","energetic","Y","40"
"","3172","same-different-html","104","967261","0.0-3.0-101.0","","8697-9","""rude""","""zukezuke.wav""","191","rude","RI","same","1","T","rude","Y","41"
"","2972","same-different-html","105","973239","0.0-3.0-102.0","","8697-9","""decisive""","""mushi.wav""","90","humid","SRI","different","1","D","decisive","Y","42"
"","3000","same-different-html","106","979243","0.0-3.0-103.0","","8697-9","""hesitant""","""moji.wav""","191","hesitant","SRI","same","1","T","hesitant","Y","43"
"","2898","same-different-html","107","985145","0.0-3.0-104.0","","8697-9","""hesitant""","""bassari.wav""","90","resolute","NRI","different","1","D","hesitant","Y","44"
"","2948","same-different-html","108","991103","0.0-3.0-105.0","","8697-9","""comfortable""","""debu.wav""","90","fat","SRI","different","1","D","comfortable","Y","45"
"","2761","same-different-html","109","996866","0.0-3.0-106.0","","8697-9","""shivering""","""hima.wav""","90","free","NAdj","different","1","D","shivering","Y","46"
"","3094","same-different-html","110","1002965","0.0-3.0-107.0","","8697-9","""impossible""","""kukkirikukkiri.wav""","191","clear","RNRI","different","0","D","impossible","Y","47"
"","2908","same-different-html","111","1008876","0.0-3.0-108.0","","8697-9","""sullen""","""kabi.wav""","90","gaudy","NAdj","different","1","D","sullen","Y","48"
"[{""page_index"":0,""viewing_time"":7980}]","7981","instructions","112","1017858","0.0-3.0-109.0","","","","","","","","","","","","",""
