"view_history","rt","trial_type","trial_index","time_elapsed","internal_node_id","responses","Id","word","sound","key_press","TrueMeaning","WordType","answer","correct","TrialType","TargetMeaning","LegalTrial","trialNum"
"[{""page_index"":0,""viewing_time"":1483}]","1483","instructions","0","1485","0.0-0.0","","","","","","","","","","","","",""
"[{""page_index"":0,""viewing_time"":1712},{""page_index"":1,""viewing_time"":1734},{""page_index"":2,""viewing_time"":1676},{""page_index"":3,""viewing_time"":683},{""page_index"":4,""viewing_time"":1946}]","7753","instructions","1","9241","0.0-1.0","","","","","","","","","","","","",""
"","4844","survey-multi-choice","2","14101","0.0-2.0","{""Q0"":""Yes"",""Q1"":""Yes"",""Q2"":""Yes"",""Q3"":""Yes"",""Q4"":""Yes""}","","","","","","","","","","","",""
"[{""page_index"":0,""viewing_time"":999},{""page_index"":1,""viewing_time"":2679}]","3678","instructions","3","17784","0.0-3.0-0.0","","","","","","","","","","","","",""
"","2898","same-different-html-trial","4","26693","0.0-3.0-1.0","","0","""sushi""","""prc_sushi.wav""","32","","","","","","","",""
"[{""page_index"":0,""viewing_time"":2025}]","2025","instructions","5","29719","0.0-3.0-2.0","","","","","","","","","","","","",""
"","9975","same-different-html","6","41699","0.0-3.0-3.0","","0","""sushi""","""prc_sushi.wav""","191","","","same","1","","","0",""
"[{""page_index"":0,""viewing_time"":2318}]","2319","instructions","7","45020","0.0-3.0-4.0","","","","","","","","","","","","",""
"","4603","same-different-html","8","51627","0.0-3.0-5.0","","0","""cat""","""prc_sushi.wav""","90","","","different","1","","","0",""
"[{""page_index"":0,""viewing_time"":3891},{""page_index"":1,""viewing_time"":1638}]","5529","instructions","9","58158","0.0-3.0-6.0","","","","","","","","","","","","",""
"","4293","same-different-html-trial","10","68460","0.0-3.0-7.0","","0","""thank you""","""prc_arigato.wav""","32","","","","","","","",""
"[{""page_index"":0,""viewing_time"":2079}]","2079","instructions","11","71541","0.0-3.0-8.0","","","","","","","","","","","","",""
"","9977","same-different-html","12","83522","0.0-3.0-9.0","","0","""thank you""","""prc_arigato.wav""","90","","","same","0","","","0",""
"","1651","same-different-html","13","88178","0.0-3.0-10.0","","0","""cat""","""prc_arigato.wav""","90","","","different","1","","","0",""
"[{""page_index"":0,""viewing_time"":1902},{""page_index"":1,""viewing_time"":9297}]","11200","instructions","14","100379","0.0-3.0-11.0","","","","","","","","","","","","",""
"","2174","same-different-html-trial","15","108560","0.0-3.0-12.0","","9714-6","""disadvantaged""","""furi.wav""","32","disadvantaged","NAdj","","","","","","1"
"","1333","same-different-html-trial","16","116901","0.0-3.0-13.0","","9714-6","""stiff""","""gowa.wav""","32","stiff","SRI","","","","","","2"
"","553","same-different-html-trial","17","124461","0.0-3.0-14.0","","9714-6","""offended""","""kachin.wav""","32","offended","NRI","","","","","","3"
"","736","same-different-html-trial","18","132203","0.0-3.0-15.0","","9714-6","""hasty""","""seka.wav""","32","hasty","SRI","","","","","","4"
"","1441","same-different-html-trial","19","140652","0.0-3.0-16.0","","9714-6","""tasteless""","""yabo.wav""","32","tasteless","NAdj","","","","","","5"
"","1379","same-different-html-trial","20","149038","0.0-3.0-17.0","","9714-6","""wobbly""","""yura.wav""","32","wobbly","SRI","","","","","","6"
"","1197","same-different-html-trial","21","157244","0.0-3.0-18.0","","9714-6","""subdued""","""jimi.wav""","32","subdued","NAdj","","","","","","7"
"","1229","same-different-html-trial","22","165483","0.0-3.0-19.0","","9714-6","""energetic""","""kibi.wav""","32","energetic","SRI","","","","","","8"
"","1375","same-different-html-trial","23","173868","0.0-3.0-20.0","","9714-6","""rash""","""muchamucha.wav""","32","rash","RNAdj","","","","","","9"
"","1128","same-different-html-trial","24","182002","0.0-3.0-21.0","","9714-6","""supple""","""shinnari.wav""","32","supple","NRI","","","","","","10"
"","1328","same-different-html-trial","25","190334","0.0-3.0-22.0","","9714-6","""beneficial""","""tokutoku.wav""","32","beneficial","RNAdj","","","","","","11"
"","1442","same-different-html-trial","26","198782","0.0-3.0-23.0","","9714-6","""nonchalantly""","""kero.wav""","32","nonchalantly","NRI","","","","","","12"
"","1939","same-different-html-trial","27","207729","0.0-3.0-24.0","","9714-6","""careful""","""jikkurijikkuri.wav""","32","careful","RNRI","","","","","","13"
"","1831","same-different-html-trial","28","216565","0.0-3.0-25.0","","9714-6","""perfect""","""batchiribatchiri.wav""","32","perfect","RNRI","","","","","","14"
"","1265","same-different-html-trial","29","224835","0.0-3.0-26.0","","9714-6","""free""","""himahima.wav""","32","free","RNAdj","","","","","","15"
"","1224","same-different-html-trial","30","233068","0.0-3.0-27.0","","9714-6","""plump""","""potchari.wav""","32","plump","NRI","","","","","","16"
"","1115","same-different-html-trial","31","241191","0.0-3.0-28.0","","9714-6","""harsh""","""koku.wav""","32","harsh","NAdj","","","","","","17"
"","766","same-different-html-trial","32","248964","0.0-3.0-29.0","","9714-6","""agitated""","""hikuhiku.wav""","32","agitated","RI","","","","","","18"
"","1358","same-different-html-trial","33","257328","0.0-3.0-30.0","","9714-6","""rude""","""zukezuke.wav""","32","rude","RI","","","","","","19"
"","1260","same-different-html-trial","34","265594","0.0-3.0-31.0","","9714-6","""fragile""","""yawayawa.wav""","32","fragile","RNAdj","","","","","","20"
"","2382","same-different-html-trial","35","274982","0.0-3.0-32.0","","9714-6","""clear""","""kukkirikukkiri.wav""","32","clear","RNRI","","","","","","21"
"","1362","same-different-html-trial","36","283351","0.0-3.0-33.0","","9714-6","""glossy""","""tsuyatsuya.wav""","32","glossy","RI","","","","","","22"
"","1432","same-different-html-trial","37","291789","0.0-3.0-34.0","","9714-6","""suspenseful""","""harahara.wav""","32","suspenseful","RI","","","","","","23"
"","1606","same-different-html-trial","38","300402","0.0-3.0-35.0","","9714-6","""sturdy""","""gashigashi.wav""","32","sturdy","RNRI","","","","","","24"
"","1550","same-different-html-trial","39","308959","0.0-3.0-36.0","","9714-6","""wobbly""","""yura.wav""","32","wobbly","SRI","","","","","","25"
"","1496","same-different-html-trial","40","317462","0.0-3.0-37.0","","9714-6","""hasty""","""seka.wav""","32","hasty","SRI","","","","","","26"
"","2416","same-different-html-trial","41","326884","0.0-3.0-38.0","","9714-6","""free""","""himahima.wav""","32","free","RNAdj","","","","","","27"
"","1160","same-different-html-trial","42","335050","0.0-3.0-39.0","","9714-6","""nonchalantly""","""kero.wav""","32","nonchalantly","NRI","","","","","","28"
"","819","same-different-html-trial","43","342876","0.0-3.0-40.0","","9714-6","""subdued""","""jimi.wav""","32","subdued","NAdj","","","","","","29"
"","1431","same-different-html-trial","44","351314","0.0-3.0-41.0","","9714-6","""rude""","""zukezuke.wav""","32","rude","RI","","","","","","30"
"","1658","same-different-html-trial","45","359979","0.0-3.0-42.0","","9714-6","""clear""","""kukkirikukkiri.wav""","32","clear","RNRI","","","","","","31"
"","724","same-different-html-trial","46","367710","0.0-3.0-43.0","","9714-6","""stiff""","""gowa.wav""","32","stiff","SRI","","","","","","32"
"","871","same-different-html-trial","47","375588","0.0-3.0-44.0","","9714-6","""glossy""","""tsuyatsuya.wav""","32","glossy","RI","","","","","","33"
"","2130","same-different-html-trial","48","384724","0.0-3.0-45.0","","9714-6","""perfect""","""batchiribatchiri.wav""","32","perfect","RNRI","","","","","","34"
"","579","same-different-html-trial","49","392309","0.0-3.0-46.0","","9714-6","""plump""","""potchari.wav""","32","plump","NRI","","","","","","35"
"","662","same-different-html-trial","50","399978","0.0-3.0-47.0","","9714-6","""tasteless""","""yabo.wav""","32","tasteless","NAdj","","","","","","36"
"","559","same-different-html-trial","51","407546","0.0-3.0-48.0","","9714-6","""careful""","""jikkurijikkuri.wav""","32","careful","RNRI","","","","","","37"
"","685","same-different-html-trial","52","415237","0.0-3.0-49.0","","9714-6","""sturdy""","""gashigashi.wav""","32","sturdy","RNRI","","","","","","38"
"","1475","same-different-html-trial","53","423719","0.0-3.0-50.0","","9714-6","""supple""","""shinnari.wav""","32","supple","NRI","","","","","","39"
"","1132","same-different-html-trial","54","431858","0.0-3.0-51.0","","9714-6","""disadvantaged""","""furi.wav""","32","disadvantaged","NAdj","","","","","","40"
"","427","same-different-html-trial","55","439294","0.0-3.0-52.0","","9714-6","""harsh""","""koku.wav""","32","harsh","NAdj","","","","","","41"
"","2655","same-different-html-trial","56","448957","0.0-3.0-53.0","","9714-6","""offended""","""kachin.wav""","32","offended","NRI","","","","","","42"
"","1071","same-different-html-trial","57","457032","0.0-3.0-54.0","","9714-6","""energetic""","""kibi.wav""","32","energetic","SRI","","","","","","43"
"","1408","same-different-html-trial","58","465447","0.0-3.0-55.0","","9714-6","""agitated""","""hikuhiku.wav""","32","agitated","RI","","","","","","44"
"","803","same-different-html-trial","59","473256","0.0-3.0-56.0","","9714-6","""rash""","""muchamucha.wav""","32","rash","RNAdj","","","","","","45"
"","1335","same-different-html-trial","60","481597","0.0-3.0-57.0","","9714-6","""fragile""","""yawayawa.wav""","32","fragile","RNAdj","","","","","","46"
"","1839","same-different-html-trial","61","490442","0.0-3.0-58.0","","9714-6","""suspenseful""","""harahara.wav""","32","suspenseful","RI","","","","","","47"
"","2805","same-different-html-trial","62","500253","0.0-3.0-59.0","","9714-6","""beneficial""","""tokutoku.wav""","32","beneficial","RNAdj","","","","","","48"
"[{""page_index"":0,""viewing_time"":10529}]","10529","instructions","63","511783","0.0-3.0-60.0","","","","","","","","","","","","",""
"","2412","same-different-html","64","516200","0.0-3.0-61.0","","9714-6","""harsh""","""yawayawa.wav""","90","fragile","RNAdj","different","1","D","harsh","Y","1"
"","312695","same-different-html","65","831898","0.0-3.0-62.0","","9714-6","""wobbly""","""yura.wav""","191","wobbly","SRI","same","1","T","wobbly","Y","2"
"","3267","same-different-html","66","838169","0.0-3.0-63.0","","9714-6","""sturdy""","""yabo.wav""","90","tasteless","NAdj","different","1","D","sturdy","Y","3"
"","2578","same-different-html","67","843751","0.0-3.0-64.0","","9714-6","""disadvantaged""","""jikkurijikkuri.wav""","90","careful","RNRI","different","1","D","disadvantaged","Y","4"
"","9265","same-different-html","68","856020","0.0-3.0-65.0","","9714-6","""rash""","""muchamucha.wav""","191","rash","RNAdj","same","1","T","rash","Y","5"
"","5963","same-different-html","69","864990","0.0-3.0-66.0","","9714-6","""wobbly""","""harahara.wav""","90","suspenseful","RI","different","1","D","wobbly","Y","6"
"","4220","same-different-html","70","872216","0.0-3.0-67.0","","9714-6","""disadvantaged""","""furi.wav""","191","disadvantaged","NAdj","same","1","T","disadvantaged","Y","7"
"","5236","same-different-html","71","880457","0.0-3.0-68.0","","9714-6","""sturdy""","""gashigashi.wav""","191","sturdy","RNRI","same","1","T","sturdy","Y","8"
"","2243","same-different-html","72","885705","0.0-3.0-69.0","","9714-6","""suspenseful""","""harahara.wav""","191","suspenseful","RI","same","1","T","suspenseful","Y","9"
"","1805","same-different-html","73","890514","0.0-3.0-70.0","","9714-6","""rude""","""gashigashi.wav""","90","sturdy","RNRI","different","1","D","rude","Y","10"
"","4839","same-different-html","74","898357","0.0-3.0-71.0","","9714-6","""stiff""","""gowa.wav""","191","stiff","SRI","same","1","T","stiff","Y","11"
"","3894","same-different-html","75","905255","0.0-3.0-72.0","","9714-6","""nonchalantly""","""yura.wav""","191","wobbly","SRI","different","0","D","nonchalantly","Y","12"
"","1771","same-different-html","76","910029","0.0-3.0-73.0","","9714-6","""subdued""","""batchiribatchiri.wav""","90","perfect","RNRI","different","1","D","subdued","Y","13"
"","1689","same-different-html","77","914722","0.0-3.0-74.0","","9714-6","""free""","""seka.wav""","90","hasty","SRI","different","1","D","free","Y","14"
"","2800","same-different-html","78","920526","0.0-3.0-75.0","","9714-6","""hasty""","""zukezuke.wav""","90","rude","RI","different","1","D","hasty","Y","15"
"","4994","same-different-html","79","928523","0.0-3.0-76.0","","9714-6","""glossy""","""tsuyatsuya.wav""","191","glossy","RI","same","1","T","glossy","Y","16"
"","2098","same-different-html","80","933626","0.0-3.0-77.0","","9714-6","""agitated""","""tsuyatsuya.wav""","90","glossy","RI","different","1","D","agitated","Y","17"
"","2415","same-different-html","81","939045","0.0-3.0-78.0","","9714-6","""careful""","""jikkurijikkuri.wav""","191","careful","RNRI","same","1","T","careful","Y","18"
"","5343","same-different-html","82","947393","0.0-3.0-79.0","","9714-6","""energetic""","""kibi.wav""","191","energetic","SRI","same","1","T","energetic","Y","19"
"","1689","same-different-html","83","952091","0.0-3.0-80.0","","9714-6","""clear""","""koku.wav""","90","harsh","NAdj","different","1","D","clear","Y","20"
"","1061","same-different-html","84","956156","0.0-3.0-81.0","","9714-6","""glossy""","""potchari.wav""","90","plump","NRI","different","1","D","glossy","Y","21"
"","3632","same-different-html","85","962793","0.0-3.0-82.0","","9714-6","""perfect""","""batchiribatchiri.wav""","191","perfect","RNRI","same","1","T","perfect","Y","22"
"","2342","same-different-html","86","968140","0.0-3.0-83.0","","9714-6","""hasty""","""seka.wav""","191","hasty","SRI","same","1","T","hasty","Y","23"
"","4136","same-different-html","87","975280","0.0-3.0-84.0","","9714-6","""plump""","""potchari.wav""","191","plump","NRI","same","1","T","plump","Y","24"
"","2555","same-different-html","88","980839","0.0-3.0-85.0","","9714-6","""beneficial""","""tokutoku.wav""","90","beneficial","RNAdj","same","0","T","beneficial","Y","25"
"","3746","same-different-html","89","987589","0.0-3.0-86.0","","9714-6","""rude""","""zukezuke.wav""","191","rude","RI","same","1","T","rude","Y","26"
"","2974","same-different-html","90","993568","0.0-3.0-87.0","","9714-6","""agitated""","""hikuhiku.wav""","90","agitated","RI","same","0","T","agitated","Y","27"
"","4359","same-different-html","91","1000931","0.0-3.0-88.0","","9714-6","""careful""","""kukkirikukkiri.wav""","191","clear","RNRI","different","0","D","careful","Y","28"
"","4497","same-different-html","92","1008433","0.0-3.0-89.0","","9714-6","""subdued""","""jimi.wav""","191","subdued","NAdj","same","1","T","subdued","Y","29"
"","7580","same-different-html","93","1019017","0.0-3.0-90.0","","9714-6","""clear""","""kukkirikukkiri.wav""","191","clear","RNRI","same","1","T","clear","Y","30"
"","2691","same-different-html","94","1024712","0.0-3.0-91.0","","9714-6","""supple""","""shinnari.wav""","191","supple","NRI","same","1","T","supple","Y","31"
"","1472","same-different-html","95","1029190","0.0-3.0-92.0","","9714-6","""stiff""","""jimi.wav""","90","subdued","NAdj","different","1","D","stiff","Y","32"
"","1151","same-different-html","96","1033345","0.0-3.0-93.0","","9714-6","""perfect""","""kero.wav""","90","nonchalantly","NRI","different","1","D","perfect","Y","33"
"","1839","same-different-html","97","1038192","0.0-3.0-94.0","","9714-6","""offended""","""gowa.wav""","90","stiff","SRI","different","1","D","offended","Y","34"
"","3720","same-different-html","98","1044916","0.0-3.0-95.0","","9714-6","""offended""","""kachin.wav""","191","offended","NRI","same","1","T","offended","Y","35"
"","3921","same-different-html","99","1051843","0.0-3.0-96.0","","9714-6","""fragile""","""hikuhiku.wav""","90","agitated","RI","different","1","D","fragile","Y","36"
"","854","same-different-html","100","1055700","0.0-3.0-97.0","","9714-6","""plump""","""tokutoku.wav""","90","beneficial","RNAdj","different","1","D","plump","Y","37"
"","1021","same-different-html","101","1059726","0.0-3.0-98.0","","9714-6","""supple""","""kachin.wav""","90","offended","NRI","different","1","D","supple","Y","38"
"","885","same-different-html","102","1063616","0.0-3.0-99.0","","9714-6","""rash""","""shinnari.wav""","90","supple","NRI","different","1","D","rash","Y","39"
"","1915","same-different-html","103","1068534","0.0-3.0-100.0","","9714-6","""fragile""","""yawayawa.wav""","191","fragile","RNAdj","same","1","T","fragile","Y","40"
"","1621","same-different-html","104","1073159","0.0-3.0-101.0","","9714-6","""harsh""","""koku.wav""","191","harsh","NAdj","same","1","T","harsh","Y","41"
"","4502","same-different-html","105","1080666","0.0-3.0-102.0","","9714-6","""nonchalantly""","""kero.wav""","90","nonchalantly","NRI","same","0","T","nonchalantly","Y","42"
"","1330","same-different-html","106","1085001","0.0-3.0-103.0","","9714-6","""suspenseful""","""muchamucha.wav""","90","rash","RNAdj","different","1","D","suspenseful","Y","43"
"","4833","same-different-html","107","1092838","0.0-3.0-104.0","","9714-6","""tasteless""","""yabo.wav""","191","tasteless","NAdj","same","1","T","tasteless","Y","44"
"","2518","same-different-html","108","1098359","0.0-3.0-105.0","","9714-6","""free""","""himahima.wav""","191","free","RNAdj","same","1","T","free","Y","45"
"","1062","same-different-html","109","1102426","0.0-3.0-106.0","","9714-6","""energetic""","""himahima.wav""","90","free","RNAdj","different","1","D","energetic","Y","46"
"","816","same-different-html","110","1106247","0.0-3.0-107.0","","9714-6","""tasteless""","""kibi.wav""","90","energetic","SRI","different","1","D","tasteless","Y","47"
"","1409","same-different-html","111","1110659","0.0-3.0-108.0","","9714-6","""beneficial""","""furi.wav""","90","disadvantaged","NAdj","different","1","D","beneficial","Y","48"
"[{""page_index"":0,""viewing_time"":27535}]","27535","instructions","112","1139195","0.0-3.0-109.0","","","","","","","","","","","","",""
