"view_history","rt","trial_type","trial_index","time_elapsed","internal_node_id","responses","Id","word","sound","key_press","TrueMeaning","WordType","answer","correct","TrialType","TargetMeaning","LegalTrial","trialNum"
"[{""page_index"":0,""viewing_time"":39149}]","39150","instructions","0","39151","0.0-0.0","","","","","","","","","","","","",""
"[{""page_index"":0,""viewing_time"":2916},{""page_index"":1,""viewing_time"":3031},{""page_index"":2,""viewing_time"":5731},{""page_index"":3,""viewing_time"":2393},{""page_index"":4,""viewing_time"":40540}]","54611","instructions","1","93762","0.0-1.0","","","","","","","","","","","","",""
"","18923","survey-multi-choice","2","112691","0.0-2.0","{""Q0"":""Yes"",""Q1"":""Yes"",""Q2"":""Yes"",""Q3"":""Yes"",""Q4"":""Yes""}","","","","","","","","","","","",""
"[{""page_index"":0,""viewing_time"":2670},{""page_index"":1,""viewing_time"":4898}]","7569","instructions","3","120261","0.0-3.0-0.0","","","","","","","","","","","","",""
"","9467","same-different-html-trial","4","135744","0.0-3.0-1.0","","0","""sushi""","""prc_sushi.wav""","32","","","","","","","",""
"[{""page_index"":0,""viewing_time"":6499}]","6500","instructions","5","143245","0.0-3.0-2.0","","","","","","","","","","","","",""
"","16190","same-different-html","6","161443","0.0-3.0-3.0","","0","""sushi""","""prc_sushi.wav""","191","","","same","1","","","0",""
"[{""page_index"":0,""viewing_time"":4537}]","4538","instructions","7","166982","0.0-3.0-4.0","","","","","","","","","","","","",""
"","39241","same-different-html","8","208226","0.0-3.0-5.0","","0","""cat""","""prc_sushi.wav""","90","","","different","1","","","0",""
"[{""page_index"":0,""viewing_time"":3220},{""page_index"":1,""viewing_time"":2707}]","5928","instructions","9","215156","0.0-3.0-6.0","","","","","","","","","","","","",""
"","2455","same-different-html-trial","10","223620","0.0-3.0-7.0","","0","""thank you""","""prc_arigato.wav""","32","","","","","","","",""
"[{""page_index"":0,""viewing_time"":4778}]","4778","instructions","11","229399","0.0-3.0-8.0","","","","","","","","","","","","",""
"","3024","same-different-html","12","234428","0.0-3.0-9.0","","0","""thank you""","""prc_arigato.wav""","191","","","same","1","","","0",""
"","3179","same-different-html","13","240614","0.0-3.0-10.0","","0","""cat""","""prc_arigato.wav""","90","","","different","1","","","0",""
"[{""page_index"":0,""viewing_time"":2261},{""page_index"":1,""viewing_time"":26010}]","28271","instructions","14","269886","0.0-3.0-11.0","","","","","","","","","","","","",""
"","2664","same-different-html-trial","15","278560","0.0-3.0-12.0","","539-6","""whispering""","""hiso.wav""","32","whispering","SRI","","","","","","1"
"","3029","same-different-html-trial","16","288600","0.0-3.0-13.0","","539-6","""hesitant""","""mojimoji.wav""","32","hesitant","RI","","","","","","2"
"","6649","same-different-html-trial","17","302267","0.0-3.0-14.0","","539-6","""deficient""","""fubifubi.wav""","32","deficient","RNAdj","","","","","","3"
"","5929","same-different-html-trial","18","315208","0.0-3.0-15.0","","539-6","""sudden""","""patapata.wav""","32","sudden","RNRI","","","","","","4"
"","2302","same-different-html-trial","19","324522","0.0-3.0-16.0","","539-6","""stupid""","""baka.wav""","32","stupid","NAdj","","","","","","5"
"","4339","same-different-html-trial","20","335874","0.0-3.0-17.0","","539-6","""rude""","""zukezuke.wav""","32","rude","RI","","","","","","6"
"","3214","same-different-html-trial","21","346099","0.0-3.0-18.0","","539-6","""shivering""","""buruburu.wav""","32","shivering","RI","","","","","","7"
"","3214","same-different-html-trial","22","356330","0.0-3.0-19.0","","539-6","""agitated""","""hikuhiku.wav""","32","agitated","RI","","","","","","8"
"","2764","same-different-html-trial","23","366107","0.0-3.0-20.0","","539-6","""sturdy""","""gashi.wav""","32","sturdy","NRI","","","","","","9"
"","1697","same-different-html-trial","24","374815","0.0-3.0-21.0","","539-6","""resolute""","""bassari.wav""","32","resolute","NRI","","","","","","10"
"","2397","same-different-html-trial","25","384224","0.0-3.0-22.0","","539-6","""crowded""","""bisshiribisshiri.wav""","32","crowded","RNRI","","","","","","11"
"","3488","same-different-html-trial","26","394723","0.0-3.0-23.0","","539-6","""to change ocmpletely""","""gara.wav""","32","to change ocmpletely","NRI","","","","","","12"
"","2169","same-different-html-trial","27","403900","0.0-3.0-24.0","","539-6","""careful""","""jikkuri.wav""","32","careful","NRI","","","","","","13"
"","1602","same-different-html-trial","28","412514","0.0-3.0-25.0","","539-6","""chatty""","""bera.wav""","32","chatty","SRI","","","","","","14"
"","4126","same-different-html-trial","29","423653","0.0-3.0-26.0","","539-6","""fast asleep""","""gussurigussuri.wav""","32","fast asleep","RNRI","","","","","","15"
"","1478","same-different-html-trial","30","432148","0.0-3.0-27.0","","539-6","""sullen""","""musumusu.wav""","32","sullen","RNRI","","","","","","16"
"","2494","same-different-html-trial","31","441655","0.0-3.0-28.0","","539-6","""gaudy""","""kabikabi.wav""","32","gaudy","RNAdj","","","","","","17"
"","1828","same-different-html-trial","32","450497","0.0-3.0-29.0","","539-6","""fat""","""debu.wav""","32","fat","SRI","","","","","","18"
"","1704","same-different-html-trial","33","459209","0.0-3.0-30.0","","539-6","""beneficial""","""toku.wav""","32","beneficial","NAdj","","","","","","19"
"","2247","same-different-html-trial","34","468471","0.0-3.0-31.0","","539-6","""happy""","""uki.wav""","32","happy","SRI","","","","","","20"
"","18586","same-different-html-trial","35","494067","0.0-3.0-32.0","","539-6","""comfortable""","""rakuraku.wav""","32","comfortable","RNAdj","","","","","","21"
"","2012","same-different-html-trial","36","503093","0.0-3.0-33.0","","539-6","""harsh""","""kokukoku.wav""","32","harsh","RNAdj","","","","","","22"
"","2140","same-different-html-trial","37","512244","0.0-3.0-34.0","","539-6","""subdued""","""jimi.wav""","32","subdued","NAdj","","","","","","23"
"","1539","same-different-html-trial","38","520795","0.0-3.0-35.0","","539-6","""vulgar""","""zoku.wav""","32","vulgar","NAdj","","","","","","24"
"","1531","same-different-html-trial","39","529344","0.0-3.0-36.0","","539-6","""careful""","""jikkuri.wav""","32","careful","NRI","","","","","","25"
"","2740","same-different-html-trial","40","539095","0.0-3.0-37.0","","539-6","""hesitant""","""mojimoji.wav""","32","hesitant","RI","","","","","","26"
"","1733","same-different-html-trial","41","547840","0.0-3.0-38.0","","539-6","""stupid""","""baka.wav""","32","stupid","NAdj","","","","","","27"
"","1452","same-different-html-trial","42","556302","0.0-3.0-39.0","","539-6","""rude""","""zukezuke.wav""","32","rude","RI","","","","","","28"
"","416","same-different-html-trial","43","563727","0.0-3.0-40.0","","539-6","""sudden""","""patapata.wav""","32","sudden","RNRI","","","","","","29"
"","1179","same-different-html-trial","44","571915","0.0-3.0-41.0","","539-6","""beneficial""","""toku.wav""","32","beneficial","NAdj","","","","","","30"
"","1561","same-different-html-trial","45","580492","0.0-3.0-42.0","","539-6","""gaudy""","""kabikabi.wav""","32","gaudy","RNAdj","","","","","","31"
"","1150","same-different-html-trial","46","588653","0.0-3.0-43.0","","539-6","""sullen""","""musumusu.wav""","32","sullen","RNRI","","","","","","32"
"","1228","same-different-html-trial","47","596890","0.0-3.0-44.0","","539-6","""chatty""","""bera.wav""","32","chatty","SRI","","","","","","33"
"","1501","same-different-html-trial","48","605402","0.0-3.0-45.0","","539-6","""deficient""","""fubifubi.wav""","32","deficient","RNAdj","","","","","","34"
"","1422","same-different-html-trial","49","613836","0.0-3.0-46.0","","539-6","""to change ocmpletely""","""gara.wav""","32","to change ocmpletely","NRI","","","","","","35"
"","1568","same-different-html-trial","50","622416","0.0-3.0-47.0","","539-6","""happy""","""uki.wav""","32","happy","SRI","","","","","","36"
"","1563","same-different-html-trial","51","630990","0.0-3.0-48.0","","539-6","""crowded""","""bisshiribisshiri.wav""","32","crowded","RNRI","","","","","","37"
"","1369","same-different-html-trial","52","639370","0.0-3.0-49.0","","539-6","""whispering""","""hiso.wav""","32","whispering","SRI","","","","","","38"
"","4142","same-different-html-trial","53","650524","0.0-3.0-50.0","","539-6","""vulgar""","""zoku.wav""","32","vulgar","NAdj","","","","","","39"
"","4334","same-different-html-trial","54","661870","0.0-3.0-51.0","","539-6","""harsh""","""kokukoku.wav""","32","harsh","RNAdj","","","","","","40"
"","2460","same-different-html-trial","55","671341","0.0-3.0-52.0","","539-6","""resolute""","""bassari.wav""","32","resolute","NRI","","","","","","41"
"","4263","same-different-html-trial","56","682618","0.0-3.0-53.0","","539-6","""shivering""","""buruburu.wav""","32","shivering","RI","","","","","","42"
"","4217","same-different-html-trial","57","693848","0.0-3.0-54.0","","539-6","""subdued""","""jimi.wav""","32","subdued","NAdj","","","","","","43"
"","1893","same-different-html-trial","58","702760","0.0-3.0-55.0","","539-6","""fast asleep""","""gussurigussuri.wav""","32","fast asleep","RNRI","","","","","","44"
"","2481","same-different-html-trial","59","712256","0.0-3.0-56.0","","539-6","""sturdy""","""gashi.wav""","32","sturdy","NRI","","","","","","45"
"","3228","same-different-html-trial","60","722496","0.0-3.0-57.0","","539-6","""comfortable""","""rakuraku.wav""","32","comfortable","RNAdj","","","","","","46"
"","3093","same-different-html-trial","61","732599","0.0-3.0-58.0","","539-6","""fat""","""debu.wav""","32","fat","SRI","","","","","","47"
"","3785","same-different-html-trial","62","743401","0.0-3.0-59.0","","539-6","""agitated""","""hikuhiku.wav""","32","agitated","RI","","","","","","48"
"[{""page_index"":0,""viewing_time"":19758}]","19760","instructions","63","764163","0.0-3.0-60.0","","","","","","","","","","","","",""
"","4297","same-different-html","64","770466","0.0-3.0-61.0","","539-6","""subdued""","""bisshiribisshiri.wav""","90","crowded","RNRI","different","1","D","subdued","Y","1"
"","2244","same-different-html","65","775714","0.0-3.0-62.0","","539-6","""fat""","""hikuhiku.wav""","90","agitated","RI","different","1","D","fat","Y","2"
"","3494","same-different-html","66","782215","0.0-3.0-63.0","","539-6","""fat""","""debu.wav""","191","fat","SRI","same","1","T","fat","Y","3"
"","3142","same-different-html","67","788365","0.0-3.0-64.0","","539-6","""careful""","""jikkuri.wav""","191","careful","NRI","same","1","T","careful","Y","4"
"","2351","same-different-html","68","793725","0.0-3.0-65.0","","539-6","""vulgar""","""zoku.wav""","90","vulgar","NAdj","same","0","T","vulgar","Y","5"
"","2891","same-different-html","69","799621","0.0-3.0-66.0","","539-6","""chatty""","""bera.wav""","90","chatty","SRI","same","0","T","chatty","Y","6"
"","3361","same-different-html","70","805989","0.0-3.0-67.0","","539-6","""whispering""","""debu.wav""","90","fat","SRI","different","1","D","whispering","Y","7"
"","3491","same-different-html","71","812488","0.0-3.0-68.0","","539-6","""deficient""","""bera.wav""","90","chatty","SRI","different","1","D","deficient","Y","8"
"","1906","same-different-html","72","817400","0.0-3.0-69.0","","539-6","""hesitant""","""gara.wav""","90","to change ocmpletely","NRI","different","1","D","hesitant","Y","9"
"","3054","same-different-html","73","823460","0.0-3.0-70.0","","539-6","""rude""","""zukezuke.wav""","191","rude","RI","same","1","T","rude","Y","10"
"","2374","same-different-html","74","828841","0.0-3.0-71.0","","539-6","""agitated""","""toku.wav""","191","beneficial","NAdj","different","0","D","agitated","Y","11"
"","2782","same-different-html","75","834628","0.0-3.0-72.0","","539-6","""hesitant""","""mojimoji.wav""","191","hesitant","RI","same","1","T","hesitant","Y","12"
"","2696","same-different-html","76","840333","0.0-3.0-73.0","","539-6","""comfortable""","""rakuraku.wav""","90","comfortable","RNAdj","same","0","T","comfortable","Y","13"
"","3246","same-different-html","77","846588","0.0-3.0-74.0","","539-6","""gaudy""","""kabikabi.wav""","90","gaudy","RNAdj","same","0","T","gaudy","Y","14"
"","2492","same-different-html","78","852084","0.0-3.0-75.0","","539-6","""whispering""","""hiso.wav""","191","whispering","SRI","same","1","T","whispering","Y","15"
"","3102","same-different-html","79","858193","0.0-3.0-76.0","","539-6","""crowded""","""kokukoku.wav""","90","harsh","RNAdj","different","1","D","crowded","Y","16"
"","2751","same-different-html","80","863949","0.0-3.0-77.0","","539-6","""fast asleep""","""gussurigussuri.wav""","191","fast asleep","RNRI","same","1","T","fast asleep","Y","17"
"","2570","same-different-html","81","869526","0.0-3.0-78.0","","539-6","""fast asleep""","""jimi.wav""","90","subdued","NAdj","different","1","D","fast asleep","Y","18"
"","2697","same-different-html","82","875231","0.0-3.0-79.0","","539-6","""happy""","""patapata.wav""","191","sudden","RNRI","different","0","D","happy","Y","19"
"","2914","same-different-html","83","881151","0.0-3.0-80.0","","539-6","""subdued""","""jimi.wav""","90","subdued","NAdj","same","0","T","subdued","Y","20"
"","2637","same-different-html","84","886796","0.0-3.0-81.0","","539-6","""vulgar""","""jikkuri.wav""","90","careful","NRI","different","1","D","vulgar","Y","21"
"","2430","same-different-html","85","892232","0.0-3.0-82.0","","539-6","""to change ocmpletely""","""gara.wav""","90","to change ocmpletely","NRI","same","0","T","to change ocmpletely","Y","22"
"","2526","same-different-html","86","897764","0.0-3.0-83.0","","539-6","""sudden""","""patapata.wav""","191","sudden","RNRI","same","1","T","sudden","Y","23"
"","2755","same-different-html","87","903529","0.0-3.0-84.0","","539-6","""sullen""","""gashi.wav""","191","sturdy","NRI","different","0","D","sullen","Y","24"
"","1853","same-different-html","88","908391","0.0-3.0-85.0","","539-6","""sturdy""","""gashi.wav""","90","sturdy","NRI","same","0","T","sturdy","Y","25"
"","2526","same-different-html","89","913926","0.0-3.0-86.0","","539-6","""chatty""","""musumusu.wav""","90","sullen","RNRI","different","1","D","chatty","Y","26"
"","2415","same-different-html","90","919343","0.0-3.0-87.0","","539-6","""beneficial""","""toku.wav""","90","beneficial","NAdj","same","0","T","beneficial","Y","27"
"","2206","same-different-html","91","924564","0.0-3.0-88.0","","539-6","""careful""","""bassari.wav""","90","resolute","NRI","different","1","D","careful","Y","28"
"","1635","same-different-html","92","929205","0.0-3.0-89.0","","539-6","""sullen""","""musumusu.wav""","191","sullen","RNRI","same","1","T","sullen","Y","29"
"","1763","same-different-html","93","933974","0.0-3.0-90.0","","539-6","""harsh""","""kokukoku.wav""","90","harsh","RNAdj","same","0","T","harsh","Y","30"
"","2190","same-different-html","94","939171","0.0-3.0-91.0","","539-6","""shivering""","""uki.wav""","90","happy","SRI","different","1","D","shivering","Y","31"
"","2980","same-different-html","95","945155","0.0-3.0-92.0","","539-6","""crowded""","""bisshiribisshiri.wav""","90","crowded","RNRI","same","0","T","crowded","Y","32"
"","2011","same-different-html","96","950170","0.0-3.0-93.0","","539-6","""to change ocmpletely""","""zukezuke.wav""","191","rude","RI","different","0","D","to change ocmpletely","Y","33"
"","3641","same-different-html","97","956818","0.0-3.0-94.0","","539-6","""stupid""","""baka.wav""","90","stupid","NAdj","same","0","T","stupid","Y","34"
"","2200","same-different-html","98","962025","0.0-3.0-95.0","","539-6","""gaudy""","""fubifubi.wav""","90","deficient","RNAdj","different","1","D","gaudy","Y","35"
"","2345","same-different-html","99","967375","0.0-3.0-96.0","","539-6","""comfortable""","""buruburu.wav""","191","shivering","RI","different","0","D","comfortable","Y","36"
"","2607","same-different-html","100","972987","0.0-3.0-97.0","","539-6","""resolute""","""bassari.wav""","90","resolute","NRI","same","0","T","resolute","Y","37"
"","1826","same-different-html","101","977822","0.0-3.0-98.0","","539-6","""sudden""","""zoku.wav""","90","vulgar","NAdj","different","1","D","sudden","Y","38"
"","1348","same-different-html","102","982176","0.0-3.0-99.0","","539-6","""deficient""","""fubifubi.wav""","90","deficient","RNAdj","same","0","T","deficient","Y","39"
"","1700","same-different-html","103","986882","0.0-3.0-100.0","","539-6","""resolute""","""kabikabi.wav""","90","gaudy","RNAdj","different","1","D","resolute","Y","40"
"","2988","same-different-html","104","992877","0.0-3.0-101.0","","539-6","""sturdy""","""gussurigussuri.wav""","90","fast asleep","RNRI","different","1","D","sturdy","Y","41"
"","2081","same-different-html","105","997963","0.0-3.0-102.0","","539-6","""shivering""","""buruburu.wav""","191","shivering","RI","same","1","T","shivering","Y","42"
"","2558","same-different-html","106","1003528","0.0-3.0-103.0","","539-6","""stupid""","""hiso.wav""","191","whispering","SRI","different","0","D","stupid","Y","43"
"","2591","same-different-html","107","1009126","0.0-3.0-104.0","","539-6","""beneficial""","""baka.wav""","191","stupid","NAdj","different","0","D","beneficial","Y","44"
"","2212","same-different-html","108","1014343","0.0-3.0-105.0","","539-6","""happy""","""uki.wav""","90","happy","SRI","same","0","T","happy","Y","45"
"","3366","same-different-html","109","1020714","0.0-3.0-106.0","","539-6","""harsh""","""mojimoji.wav""","90","hesitant","RI","different","1","D","harsh","Y","46"
"","2609","same-different-html","110","1026330","0.0-3.0-107.0","","539-6","""agitated""","""hikuhiku.wav""","90","agitated","RI","same","0","T","agitated","Y","47"
"","3459","same-different-html","111","1032795","0.0-3.0-108.0","","539-6","""rude""","""rakuraku.wav""","191","comfortable","RNAdj","different","0","D","rude","Y","48"
"[{""page_index"":0,""viewing_time"":43715}]","43716","instructions","112","1077513","0.0-3.0-109.0","","","","","","","","","","","","",""
