"view_history","rt","trial_type","trial_index","time_elapsed","internal_node_id","responses","Id","word","sound","key_press","TrueMeaning","WordType","answer","correct","TrialType","TargetMeaning","LegalTrial","trialNum"
"[{""page_index"":0,""viewing_time"":7850}]","7850","instructions","0","7851","0.0-0.0","","","","","","","","","","","","",""
"[{""page_index"":0,""viewing_time"":2006},{""page_index"":1,""viewing_time"":2480},{""page_index"":2,""viewing_time"":4664},{""page_index"":3,""viewing_time"":9743},{""page_index"":4,""viewing_time"":167502}]","186395","instructions","1","194246","0.0-1.0","","","","","","","","","","","","",""
"","12143","survey-multi-choice","2","206396","0.0-2.0","{""Q0"":""Yes"",""Q1"":""Yes"",""Q2"":""Yes"",""Q3"":""Yes"",""Q4"":""Yes""}","","","","","","","","","","","",""
"[{""page_index"":0,""viewing_time"":1988},{""page_index"":1,""viewing_time"":11439}]","13428","instructions","3","219825","0.0-3.0-0.0","","","","","","","","","","","","",""
"","3890","same-different-html-trial","4","229730","0.0-3.0-1.0","","0","""sushi""","""prc_sushi.wav""","32","","","","","","","",""
"[{""page_index"":0,""viewing_time"":10230}]","10231","instructions","5","240961","0.0-3.0-2.0","","","","","","","","","","","","",""
"","5226","same-different-html","6","248193","0.0-3.0-3.0","","0","""sushi""","""prc_sushi.wav""","191","","","same","1","","","0",""
"[{""page_index"":0,""viewing_time"":4143}]","4143","instructions","7","253336","0.0-3.0-4.0","","","","","","","","","","","","",""
"","4141","same-different-html","8","259481","0.0-3.0-5.0","","0","""cat""","""prc_sushi.wav""","90","","","different","1","","","0",""
"[{""page_index"":0,""viewing_time"":8110},{""page_index"":1,""viewing_time"":3289}]","11400","instructions","9","271882","0.0-3.0-6.0","","","","","","","","","","","","",""
"","809","same-different-html-trial","10","278698","0.0-3.0-7.0","","0","""thank you""","""prc_arigato.wav""","32","","","","","","","",""
"[{""page_index"":0,""viewing_time"":9831}]","9831","instructions","11","289529","0.0-3.0-8.0","","","","","","","","","","","","",""
"","4070","same-different-html","12","295600","0.0-3.0-9.0","","0","""thank you""","""prc_arigato.wav""","191","","","same","1","","","0",""
"","2877","same-different-html","13","301481","0.0-3.0-10.0","","0","""cat""","""prc_arigato.wav""","90","","","different","1","","","0",""
"[{""page_index"":0,""viewing_time"":16239},{""page_index"":1,""viewing_time"":30959}]","47198","instructions","14","349680","0.0-3.0-11.0","","","","","","","","","","","","",""
"","2680","same-different-html-trial","15","358369","0.0-3.0-12.0","","4028-10","""decisive""","""pishapisha.wav""","32","decisive","RNRI","","","","","","1"
"","10664","same-different-html-trial","16","376040","0.0-3.0-13.0","","4028-10","""free""","""hima.wav""","32","free","NAdj","","","","","","2"
"","22521","same-different-html-trial","17","405571","0.0-3.0-14.0","","4028-10","""excessive""","""kadokado.wav""","32","excessive","RNAdj","","","","","","3"
"","2053","same-different-html-trial","18","414633","0.0-3.0-15.0","","4028-10","""worn out""","""boro.wav""","32","worn out","SRI","","","","","","4"
"","5520","same-different-html-trial","19","427161","0.0-3.0-16.0","","4028-10","""whole""","""goso.wav""","32","whole","NRI","","","","","","5"
"","7667","same-different-html-trial","20","441834","0.0-3.0-17.0","","4028-10","""beneficial""","""tokutoku.wav""","32","beneficial","RNAdj","","","","","","6"
"","5553","same-different-html-trial","21","454394","0.0-3.0-18.0","","4028-10","""comfortable""","""raku.wav""","32","comfortable","NAdj","","","","","","7"
"","3952","same-different-html-trial","22","465354","0.0-3.0-19.0","","4028-10","""fat""","""debudebu.wav""","32","fat","RI","","","","","","8"
"","6601","same-different-html-trial","23","478961","0.0-3.0-20.0","","4028-10","""fast asleep""","""gussuri.wav""","32","fast asleep","NRI","","","","","","9"
"","17226","same-different-html-trial","24","503194","0.0-3.0-21.0","","4028-10","""sudden""","""patapata.wav""","32","sudden","RNRI","","","","","","10"
"","5097","same-different-html-trial","25","515298","0.0-3.0-22.0","","4028-10","""hesitant""","""moji.wav""","32","hesitant","SRI","","","","","","11"
"","6976","same-different-html-trial","26","529281","0.0-3.0-23.0","","4028-10","""glossy""","""tsuyatsuya.wav""","32","glossy","RI","","","","","","12"
"","6970","same-different-html-trial","27","543257","0.0-3.0-24.0","","4028-10","""wobbly""","""yura.wav""","32","wobbly","SRI","","","","","","13"
"","5457","same-different-html-trial","28","555721","0.0-3.0-25.0","","4028-10","""fragile""","""yawayawa.wav""","32","fragile","RNAdj","","","","","","14"
"","4147","same-different-html-trial","29","566874","0.0-3.0-26.0","","4028-10","""rude""","""zuke.wav""","32","rude","SRI","","","","","","15"
"","4017","same-different-html-trial","30","577898","0.0-3.0-27.0","","4028-10","""subdued""","""jimijimi.wav""","32","subdued","RNAdj","","","","","","16"
"","3648","same-different-html-trial","31","588553","0.0-3.0-28.0","","4028-10","""shivering""","""buruburu.wav""","32","shivering","RI","","","","","","17"
"","6640","same-different-html-trial","32","602201","0.0-3.0-29.0","","4028-10","""plump""","""potcharipotchari.wav""","32","plump","RNRI","","","","","","18"
"","3633","same-different-html-trial","33","612841","0.0-3.0-30.0","","4028-10","""useless""","""dame.wav""","32","useless","NAdj","","","","","","19"
"","4625","same-different-html-trial","34","624473","0.0-3.0-31.0","","4028-10","""resolute""","""bassari.wav""","32","resolute","NRI","","","","","","20"
"","21106","same-different-html-trial","35","652588","0.0-3.0-32.0","","4028-10","""perfect""","""batchiribatchiri.wav""","32","perfect","RNRI","","","","","","21"
"","4094","same-different-html-trial","36","663689","0.0-3.0-33.0","","4028-10","""smug""","""kiza.wav""","32","smug","NAdj","","","","","","22"
"","4321","same-different-html-trial","37","675017","0.0-3.0-34.0","","4028-10","""energetic""","""kibikibi.wav""","32","energetic","RI","","","","","","23"
"","2720","same-different-html-trial","38","684744","0.0-3.0-35.0","","4028-10","""supple""","""shinnari.wav""","32","supple","NRI","","","","","","24"
"","856","same-different-html-trial","39","692609","0.0-3.0-36.0","","4028-10","""smug""","""kiza.wav""","32","smug","NAdj","","","","","","25"
"","680","same-different-html-trial","40","700299","0.0-3.0-37.0","","4028-10","""energetic""","""kibikibi.wav""","32","energetic","RI","","","","","","26"
"","6911","same-different-html-trial","41","714217","0.0-3.0-38.0","","4028-10","""hesitant""","""moji.wav""","32","hesitant","SRI","","","","","","27"
"","2528","same-different-html-trial","42","723752","0.0-3.0-39.0","","4028-10","""subdued""","""jimijimi.wav""","32","subdued","RNAdj","","","","","","28"
"","16362","same-different-html-trial","43","747124","0.0-3.0-40.0","","4028-10","""shivering""","""buruburu.wav""","32","shivering","RI","","","","","","29"
"","3037","same-different-html-trial","44","757170","0.0-3.0-41.0","","4028-10","""perfect""","""batchiribatchiri.wav""","32","perfect","RNRI","","","","","","30"
"","3233","same-different-html-trial","45","767409","0.0-3.0-42.0","","4028-10","""excessive""","""kadokado.wav""","32","excessive","RNAdj","","","","","","31"
"","2649","same-different-html-trial","46","777065","0.0-3.0-43.0","","4028-10","""beneficial""","""tokutoku.wav""","32","beneficial","RNAdj","","","","","","32"
"","3467","same-different-html-trial","47","787538","0.0-3.0-44.0","","4028-10","""whole""","""goso.wav""","32","whole","NRI","","","","","","33"
"","522","same-different-html-trial","48","795066","0.0-3.0-45.0","","4028-10","""comfortable""","""raku.wav""","32","comfortable","NAdj","","","","","","34"
"","911","same-different-html-trial","49","802985","0.0-3.0-46.0","","4028-10","""wobbly""","""yura.wav""","32","wobbly","SRI","","","","","","35"
"","865","same-different-html-trial","50","810858","0.0-3.0-47.0","","4028-10","""rude""","""zuke.wav""","32","rude","SRI","","","","","","36"
"","992","same-different-html-trial","51","818858","0.0-3.0-48.0","","4028-10","""fragile""","""yawayawa.wav""","32","fragile","RNAdj","","","","","","37"
"","298","same-different-html-trial","52","826163","0.0-3.0-49.0","","4028-10","""glossy""","""tsuyatsuya.wav""","32","glossy","RI","","","","","","38"
"","303","same-different-html-trial","53","833473","0.0-3.0-50.0","","4028-10","""decisive""","""pishapisha.wav""","32","decisive","RNRI","","","","","","39"
"","928","same-different-html-trial","54","841408","0.0-3.0-51.0","","4028-10","""worn out""","""boro.wav""","32","worn out","SRI","","","","","","40"
"","1986","same-different-html-trial","55","850400","0.0-3.0-52.0","","4028-10","""resolute""","""bassari.wav""","32","resolute","NRI","","","","","","41"
"","441","same-different-html-trial","56","857849","0.0-3.0-53.0","","4028-10","""plump""","""potcharipotchari.wav""","32","plump","RNRI","","","","","","42"
"","273","same-different-html-trial","57","865129","0.0-3.0-54.0","","4028-10","""fast asleep""","""gussuri.wav""","32","fast asleep","NRI","","","","","","43"
"","255","same-different-html-trial","58","872394","0.0-3.0-55.0","","4028-10","""useless""","""dame.wav""","32","useless","NAdj","","","","","","44"
"","4849","same-different-html-trial","59","884250","0.0-3.0-56.0","","4028-10","""supple""","""shinnari.wav""","32","supple","NRI","","","","","","45"
"","305","same-different-html-trial","60","891562","0.0-3.0-57.0","","4028-10","""free""","""hima.wav""","32","free","NAdj","","","","","","46"
"","21426","same-different-html-trial","61","919995","0.0-3.0-58.0","","4028-10","""fat""","""debudebu.wav""","32","fat","RI","","","","","","47"
"","270","same-different-html-trial","62","927272","0.0-3.0-59.0","","4028-10","""sudden""","""patapata.wav""","32","sudden","RNRI","","","","","","48"
"[{""page_index"":0,""viewing_time"":26048}]","26048","instructions","63","954321","0.0-3.0-60.0","","","","","","","","","","","","",""
"","5306","same-different-html","64","961633","0.0-3.0-61.0","","4028-10","""resolute""","""bassari.wav""","191","resolute","NRI","same","1","T","resolute","Y","1"
"","2323","same-different-html","65","966961","0.0-3.0-62.0","","4028-10","""free""","""kiza.wav""","90","smug","NAdj","different","1","D","free","Y","2"
"","2459","same-different-html","66","972424","0.0-3.0-63.0","","4028-10","""fast asleep""","""batchiribatchiri.wav""","90","perfect","RNRI","different","1","D","fast asleep","Y","3"
"","1806","same-different-html","67","977233","0.0-3.0-64.0","","4028-10","""useless""","""dame.wav""","191","useless","NAdj","same","1","T","useless","Y","4"
"","2211","same-different-html","68","982449","0.0-3.0-65.0","","4028-10","""shivering""","""buruburu.wav""","191","shivering","RI","same","1","T","shivering","Y","5"
"","1555","same-different-html","69","987008","0.0-3.0-66.0","","4028-10","""useless""","""raku.wav""","90","comfortable","NAdj","different","1","D","useless","Y","6"
"","2125","same-different-html","70","992136","0.0-3.0-67.0","","4028-10","""fast asleep""","""gussuri.wav""","191","fast asleep","NRI","same","1","T","fast asleep","Y","7"
"","2163","same-different-html","71","997304","0.0-3.0-68.0","","4028-10","""wobbly""","""shinnari.wav""","90","supple","NRI","different","1","D","wobbly","Y","8"
"","9883","same-different-html","72","1010191","0.0-3.0-69.0","","4028-10","""excessive""","""yura.wav""","90","wobbly","SRI","different","1","D","excessive","Y","9"
"","1677","same-different-html","73","1014874","0.0-3.0-70.0","","4028-10","""whole""","""bassari.wav""","90","resolute","NRI","different","1","D","whole","Y","10"
"","1787","same-different-html","74","1019665","0.0-3.0-71.0","","4028-10","""hesitant""","""hima.wav""","90","free","NAdj","different","1","D","hesitant","Y","11"
"","15558","same-different-html","75","1038227","0.0-3.0-72.0","","4028-10","""decisive""","""tsuyatsuya.wav""","90","glossy","RI","different","1","D","decisive","Y","12"
"","1969","same-different-html","76","1043201","0.0-3.0-73.0","","4028-10","""decisive""","""pishapisha.wav""","191","decisive","RNRI","same","1","T","decisive","Y","13"
"","2501","same-different-html","77","1048705","0.0-3.0-74.0","","4028-10","""glossy""","""tsuyatsuya.wav""","191","glossy","RI","same","1","T","glossy","Y","14"
"","1748","same-different-html","78","1053456","0.0-3.0-75.0","","4028-10","""hesitant""","""moji.wav""","191","hesitant","SRI","same","1","T","hesitant","Y","15"
"","5029","same-different-html","79","1061489","0.0-3.0-76.0","","4028-10","""subdued""","""dame.wav""","90","useless","NAdj","different","1","D","subdued","Y","16"
"","1932","same-different-html","80","1066424","0.0-3.0-77.0","","4028-10","""plump""","""potcharipotchari.wav""","191","plump","RNRI","same","1","T","plump","Y","17"
"","1540","same-different-html","81","1070968","0.0-3.0-78.0","","4028-10","""fragile""","""debudebu.wav""","90","fat","RI","different","1","D","fragile","Y","18"
"","1798","same-different-html","82","1075771","0.0-3.0-79.0","","4028-10","""rude""","""zuke.wav""","191","rude","SRI","same","1","T","rude","Y","19"
"","2411","same-different-html","83","1081185","0.0-3.0-80.0","","4028-10","""whole""","""goso.wav""","191","whole","NRI","same","1","T","whole","Y","20"
"","1196","same-different-html","84","1085385","0.0-3.0-81.0","","4028-10","""beneficial""","""moji.wav""","90","hesitant","SRI","different","1","D","beneficial","Y","21"
"","3435","same-different-html","85","1091825","0.0-3.0-82.0","","4028-10","""energetic""","""tokutoku.wav""","90","beneficial","RNAdj","different","1","D","energetic","Y","22"
"","1884","same-different-html","86","1096714","0.0-3.0-83.0","","4028-10","""sudden""","""pishapisha.wav""","90","decisive","RNRI","different","1","D","sudden","Y","23"
"","1962","same-different-html","87","1101681","0.0-3.0-84.0","","4028-10","""smug""","""zuke.wav""","90","rude","SRI","different","1","D","smug","Y","24"
"","1494","same-different-html","88","1106179","0.0-3.0-85.0","","4028-10","""plump""","""kibikibi.wav""","90","energetic","RI","different","1","D","plump","Y","25"
"","2018","same-different-html","89","1111201","0.0-3.0-86.0","","4028-10","""perfect""","""buruburu.wav""","90","shivering","RI","different","1","D","perfect","Y","26"
"","2716","same-different-html","90","1116920","0.0-3.0-87.0","","4028-10","""free""","""hima.wav""","191","free","NAdj","same","1","T","free","Y","27"
"","2155","same-different-html","91","1122080","0.0-3.0-88.0","","4028-10","""subdued""","""jimijimi.wav""","191","subdued","RNAdj","same","1","T","subdued","Y","28"
"","4117","same-different-html","92","1129200","0.0-3.0-89.0","","4028-10","""excessive""","""kadokado.wav""","191","excessive","RNAdj","same","1","T","excessive","Y","29"
"","2299","same-different-html","93","1134504","0.0-3.0-90.0","","4028-10","""worn out""","""gussuri.wav""","90","fast asleep","NRI","different","1","D","worn out","Y","30"
"","2246","same-different-html","94","1139755","0.0-3.0-91.0","","4028-10","""wobbly""","""yura.wav""","191","wobbly","SRI","same","1","T","wobbly","Y","31"
"","4370","same-different-html","95","1147128","0.0-3.0-92.0","","4028-10","""fragile""","""yawayawa.wav""","191","fragile","RNAdj","same","1","T","fragile","Y","32"
"","1645","same-different-html","96","1151779","0.0-3.0-93.0","","4028-10","""beneficial""","""tokutoku.wav""","191","beneficial","RNAdj","same","1","T","beneficial","Y","33"
"","1675","same-different-html","97","1156457","0.0-3.0-94.0","","4028-10","""energetic""","""kibikibi.wav""","191","energetic","RI","same","1","T","energetic","Y","34"
"","1402","same-different-html","98","1160865","0.0-3.0-95.0","","4028-10","""resolute""","""boro.wav""","90","worn out","SRI","different","1","D","resolute","Y","35"
"","1716","same-different-html","99","1165585","0.0-3.0-96.0","","4028-10","""fat""","""debudebu.wav""","191","fat","RI","same","1","T","fat","Y","36"
"","1858","same-different-html","100","1170449","0.0-3.0-97.0","","4028-10","""sudden""","""patapata.wav""","191","sudden","RNRI","same","1","T","sudden","Y","37"
"","2844","same-different-html","101","1176297","0.0-3.0-98.0","","4028-10","""shivering""","""goso.wav""","90","whole","NRI","different","1","D","shivering","Y","38"
"","1867","same-different-html","102","1181167","0.0-3.0-99.0","","4028-10","""comfortable""","""raku.wav""","191","comfortable","NAdj","same","1","T","comfortable","Y","39"
"","1813","same-different-html","103","1185984","0.0-3.0-100.0","","4028-10","""perfect""","""batchiribatchiri.wav""","191","perfect","RNRI","same","1","T","perfect","Y","40"
"","3796","same-different-html","104","1192784","0.0-3.0-101.0","","4028-10","""worn out""","""boro.wav""","191","worn out","SRI","same","1","T","worn out","Y","41"
"","10285","same-different-html","105","1206073","0.0-3.0-102.0","","4028-10","""supple""","""shinnari.wav""","90","supple","NRI","same","0","T","supple","Y","42"
"","5267","same-different-html","106","1214344","0.0-3.0-103.0","","4028-10","""glossy""","""potcharipotchari.wav""","90","plump","RNRI","different","1","D","glossy","Y","43"
"","1004","same-different-html","107","1218354","0.0-3.0-104.0","","4028-10","""fat""","""patapata.wav""","90","sudden","RNRI","different","1","D","fat","Y","44"
"","1251","same-different-html","108","1222608","0.0-3.0-105.0","","4028-10","""comfortable""","""kadokado.wav""","90","excessive","RNAdj","different","1","D","comfortable","Y","45"
"","7813","same-different-html","109","1233425","0.0-3.0-106.0","","4028-10","""smug""","""kiza.wav""","191","smug","NAdj","same","1","T","smug","Y","46"
"","3211","same-different-html","110","1239639","0.0-3.0-107.0","","4028-10","""supple""","""jimijimi.wav""","90","subdued","RNAdj","different","1","D","supple","Y","47"
"","1142","same-different-html","111","1243785","0.0-3.0-108.0","","4028-10","""rude""","""yawayawa.wav""","90","fragile","RNAdj","different","1","D","rude","Y","48"
"[{""page_index"":0,""viewing_time"":22163}]","22163","instructions","112","1266948","0.0-3.0-109.0","","","","","","","","","","","","",""
