"view_history","rt","trial_type","trial_index","time_elapsed","internal_node_id","responses","Id","word","sound","key_press","TrueMeaning","WordType","answer","correct","TrialType","TargetMeaning","LegalTrial","trialNum"
"[{""page_index"":0,""viewing_time"":5227}]","5229","instructions","0","5236","0.0-0.0","","","","","","","","","","","","",""
"[{""page_index"":0,""viewing_time"":1398},{""page_index"":1,""viewing_time"":4568},{""page_index"":2,""viewing_time"":15168},{""page_index"":3,""viewing_time"":11191},{""page_index"":4,""viewing_time"":4904}]","37230","instructions","1","42468","0.0-1.0","","","","","","","","","","","","",""
"","11202","survey-multi-choice","2","53689","0.0-2.0","{""Q0"":""Yes"",""Q1"":""Yes"",""Q2"":""Yes"",""Q3"":""Yes"",""Q4"":""Yes""}","","","","","","","","","","","",""
"[{""page_index"":0,""viewing_time"":1849},{""page_index"":1,""viewing_time"":2472}]","4322","instructions","3","58016","0.0-3.0-0.0","","","","","","","","","","","","",""
"","3130","same-different-html-trial","4","67245","0.0-3.0-1.0","","0","""sushi""","""prc_sushi.wav""","32","","","","","","","",""
"[{""page_index"":0,""viewing_time"":4285}]","4285","instructions","5","72547","0.0-3.0-2.0","","","","","","","","","","","","",""
"","12581","same-different-html","6","87162","0.0-3.0-3.0","","0","""sushi""","""prc_sushi.wav""","191","","","same","1","","","0",""
"[{""page_index"":0,""viewing_time"":4394}]","4394","instructions","7","92566","0.0-3.0-4.0","","","","","","","","","","","","",""
"","2479","same-different-html","8","97062","0.0-3.0-5.0","","0","""cat""","""prc_sushi.wav""","90","","","different","1","","","0",""
"[{""page_index"":0,""viewing_time"":1455},{""page_index"":1,""viewing_time"":2663}]","4118","instructions","9","102189","0.0-3.0-6.0","","","","","","","","","","","","",""
"","1836","same-different-html-trial","10","110104","0.0-3.0-7.0","","0","""thank you""","""prc_arigato.wav""","32","","","","","","","",""
"[{""page_index"":0,""viewing_time"":1963}]","1963","instructions","11","113137","0.0-3.0-8.0","","","","","","","","","","","","",""
"","18680","same-different-html","12","133843","0.0-3.0-9.0","","0","""thank you""","""prc_arigato.wav""","90","","","same","0","","","0",""
"","3107","same-different-html","13","140002","0.0-3.0-10.0","","0","""cat""","""prc_arigato.wav""","90","","","different","1","","","0",""
"[{""page_index"":0,""viewing_time"":1827},{""page_index"":1,""viewing_time"":3131}]","4960","instructions","14","145970","0.0-3.0-11.0","","","","","","","","","","","","",""
"","1772","same-different-html-trial","15","153795","0.0-3.0-12.0","","131-10","""chatty""","""bera.wav""","32","chatty","SRI","","","","","","1"
"","694","same-different-html-trial","16","161576","0.0-3.0-13.0","","131-10","""humid""","""mushimushi.wav""","32","humid","RI","","","","","","2"
"","450","same-different-html-trial","17","169084","0.0-3.0-14.0","","131-10","""suspenseful""","""hara.wav""","32","suspenseful","SRI","","","","","","3"
"","1052","same-different-html-trial","18","177226","0.0-3.0-15.0","","131-10","""sloppy""","""zatsu.wav""","32","sloppy","NAdj","","","","","","4"
"","754","same-different-html-trial","19","185055","0.0-3.0-16.0","","131-10","""clear""","""kukkiri.wav""","32","clear","NRI","","","","","","5"
"","260","same-different-html-trial","20","192382","0.0-3.0-17.0","","131-10","""worn out""","""boroboro.wav""","32","worn out","RI","","","","","","6"
"","868","same-different-html-trial","21","200369","0.0-3.0-18.0","","131-10","""pure""","""mukumuku.wav""","32","pure","RNAdj","","","","","","7"
"","313","same-different-html-trial","22","207774","0.0-3.0-19.0","","131-10","""sullen""","""musu.wav""","32","sullen","NRI","","","","","","8"
"","341","same-different-html-trial","23","215283","0.0-3.0-20.0","","131-10","""glossy""","""tsuyatsuya.wav""","32","glossy","RI","","","","","","9"
"","17302","same-different-html-trial","24","239692","0.0-3.0-21.0","","131-10","""crowded""","""bisshiribisshiri.wav""","32","crowded","RNRI","","","","","","10"
"","1242","same-different-html-trial","25","247995","0.0-3.0-22.0","","131-10","""noisy""","""gaya.wav""","32","noisy","SRI","","","","","","11"
"","269","same-different-html-trial","26","255312","0.0-3.0-23.0","","131-10","""fast asleep""","""gussuri.wav""","32","fast asleep","NRI","","","","","","12"
"","369","same-different-html-trial","27","262723","0.0-3.0-24.0","","131-10","""harsh""","""koku.wav""","32","harsh","NAdj","","","","","","13"
"","358","same-different-html-trial","28","270129","0.0-3.0-25.0","","131-10","""chubby""","""bukubuku.wav""","32","chubby","RI","","","","","","14"
"","289","same-different-html-trial","29","277533","0.0-3.0-26.0","","131-10","""rare""","""maremare.wav""","32","rare","RNAdj","","","","","","15"
"","743","same-different-html-trial","30","285328","0.0-3.0-27.0","","131-10","""fat""","""debu.wav""","32","fat","SRI","","","","","","16"
"","1091","same-different-html-trial","31","293518","0.0-3.0-28.0","","131-10","""sudden""","""pata.wav""","32","sudden","NRI","","","","","","17"
"","303","same-different-html-trial","32","300874","0.0-3.0-29.0","","131-10","""plump""","""potcharipotchari.wav""","32","plump","RNRI","","","","","","18"
"","191","same-different-html-trial","33","308158","0.0-3.0-30.0","","131-10","""excessive""","""kadokado.wav""","32","excessive","RNAdj","","","","","","19"
"","405","same-different-html-trial","34","315617","0.0-3.0-31.0","","131-10","""beneficial""","""toku.wav""","32","beneficial","NAdj","","","","","","20"
"","444","same-different-html-trial","35","323107","0.0-3.0-32.0","","131-10","""useless""","""damedame.wav""","32","useless","RNAdj","","","","","","21"
"","23","same-different-html-trial","36","330179","0.0-3.0-33.0","","131-10","""nonchalantly""","""kerokero.wav""","32","nonchalantly","RNRI","","","","","","22"
"","673","same-different-html-trial","37","337902","0.0-3.0-34.0","","131-10","""stupid""","""baka.wav""","32","stupid","NAdj","","","","","","23"
"","260","same-different-html-trial","38","345246","0.0-3.0-35.0","","131-10","""careful""","""jikkurijikkuri.wav""","32","careful","RNRI","","","","","","24"
"","363","same-different-html-trial","39","352686","0.0-3.0-36.0","","131-10","""beneficial""","""toku.wav""","32","beneficial","NAdj","","","","","","25"
"","260","same-different-html-trial","40","360070","0.0-3.0-37.0","","131-10","""harsh""","""koku.wav""","32","harsh","NAdj","","","","","","26"
"","503","same-different-html-trial","41","367628","0.0-3.0-38.0","","131-10","""stupid""","""baka.wav""","32","stupid","NAdj","","","","","","27"
"","401","same-different-html-trial","42","375076","0.0-3.0-39.0","","131-10","""noisy""","""gaya.wav""","32","noisy","SRI","","","","","","28"
"","324","same-different-html-trial","43","382466","0.0-3.0-40.0","","131-10","""careful""","""jikkurijikkuri.wav""","32","careful","RNRI","","","","","","29"
"","389","same-different-html-trial","44","389952","0.0-3.0-41.0","","131-10","""useless""","""damedame.wav""","32","useless","RNAdj","","","","","","30"
"","490","same-different-html-trial","45","397503","0.0-3.0-42.0","","131-10","""fat""","""debu.wav""","32","fat","SRI","","","","","","31"
"","249","same-different-html-trial","46","404803","0.0-3.0-43.0","","131-10","""chubby""","""bukubuku.wav""","32","chubby","RI","","","","","","32"
"","1625","same-different-html-trial","47","413515","0.0-3.0-44.0","","131-10","""chatty""","""bera.wav""","32","chatty","SRI","","","","","","33"
"","198","same-different-html-trial","48","420774","0.0-3.0-45.0","","131-10","""sudden""","""pata.wav""","32","sudden","NRI","","","","","","34"
"","326","same-different-html-trial","49","428441","0.0-3.0-46.0","","131-10","""sullen""","""musu.wav""","32","sullen","NRI","","","","","","35"
"","550","same-different-html-trial","50","436044","0.0-3.0-47.0","","131-10","""crowded""","""bisshiribisshiri.wav""","32","crowded","RNRI","","","","","","36"
"","525","same-different-html-trial","51","443900","0.0-3.0-48.0","","131-10","""sloppy""","""zatsu.wav""","32","sloppy","NAdj","","","","","","37"
"","514","same-different-html-trial","52","451616","0.0-3.0-49.0","","131-10","""nonchalantly""","""kerokero.wav""","32","nonchalantly","RNRI","","","","","","38"
"","1208","same-different-html-trial","53","459866","0.0-3.0-50.0","","131-10","""excessive""","""kadokado.wav""","32","excessive","RNAdj","","","","","","39"
"","991","same-different-html-trial","54","467915","0.0-3.0-51.0","","131-10","""suspenseful""","""hara.wav""","32","suspenseful","SRI","","","","","","40"
"","3217","same-different-html-trial","55","478249","0.0-3.0-52.0","","131-10","""worn out""","""boroboro.wav""","32","worn out","RI","","","","","","41"
"","1334","same-different-html-trial","56","486662","0.0-3.0-53.0","","131-10","""rare""","""maremare.wav""","32","rare","RNAdj","","","","","","42"
"","855","same-different-html-trial","57","494611","0.0-3.0-54.0","","131-10","""fast asleep""","""gussuri.wav""","32","fast asleep","NRI","","","","","","43"
"","2411","same-different-html-trial","58","504116","0.0-3.0-55.0","","131-10","""glossy""","""tsuyatsuya.wav""","32","glossy","RI","","","","","","44"
"","966","same-different-html-trial","59","512212","0.0-3.0-56.0","","131-10","""clear""","""kukkiri.wav""","32","clear","NRI","","","","","","45"
"","344","same-different-html-trial","60","519629","0.0-3.0-57.0","","131-10","""pure""","""mukumuku.wav""","32","pure","RNAdj","","","","","","46"
"","804","same-different-html-trial","61","527495","0.0-3.0-58.0","","131-10","""plump""","""potcharipotchari.wav""","32","plump","RNRI","","","","","","47"
"","418","same-different-html-trial","62","535001","0.0-3.0-59.0","","131-10","""humid""","""mushimushi.wav""","32","humid","RI","","","","","","48"
"[{""page_index"":0,""viewing_time"":1296}]","1297","instructions","63","537310","0.0-3.0-60.0","","","","","","","","","","","","",""
"","5986","same-different-html","64","545349","0.0-3.0-61.0","","131-10","""clear""","""kukkiri.wav""","90","clear","NRI","same","0","T","clear","Y","1"
"","11885","same-different-html","65","560276","0.0-3.0-62.0","","131-10","""stupid""","""bukubuku.wav""","90","chubby","RI","different","1","D","stupid","Y","2"
"","2609","same-different-html","66","565934","0.0-3.0-63.0","","131-10","""suspenseful""","""hara.wav""","90","suspenseful","SRI","same","0","T","suspenseful","Y","3"
"","5915","same-different-html","67","574908","0.0-3.0-64.0","","131-10","""stupid""","""baka.wav""","191","stupid","NAdj","same","1","T","stupid","Y","4"
"","6403","same-different-html","68","584366","0.0-3.0-65.0","","131-10","""nonchalantly""","""kerokero.wav""","90","nonchalantly","RNRI","same","0","T","nonchalantly","Y","5"
"","3100","same-different-html","69","590526","0.0-3.0-66.0","","131-10","""rare""","""maremare.wav""","90","rare","RNAdj","same","0","T","rare","Y","6"
"","1912","same-different-html","70","595505","0.0-3.0-67.0","","131-10","""chubby""","""boroboro.wav""","90","worn out","RI","different","1","D","chubby","Y","7"
"","11813","same-different-html","71","610368","0.0-3.0-68.0","","131-10","""sudden""","""pata.wav""","90","sudden","NRI","same","0","T","sudden","Y","8"
"","751","same-different-html","72","614156","0.0-3.0-69.0","","131-10","""pure""","""debu.wav""","90","fat","SRI","different","1","D","pure","Y","9"
"","668","same-different-html","73","617869","0.0-3.0-70.0","","131-10","""fast asleep""","""gussuri.wav""","90","fast asleep","NRI","same","0","T","fast asleep","Y","10"
"","548","same-different-html","74","621445","0.0-3.0-71.0","","131-10","""chubby""","""bukubuku.wav""","90","chubby","RI","same","0","T","chubby","Y","11"
"","260","same-different-html","75","624753","0.0-3.0-72.0","","131-10","""noisy""","""tsuyatsuya.wav""","90","glossy","RI","different","1","D","noisy","Y","12"
"","321","same-different-html","76","628148","0.0-3.0-73.0","","131-10","""suspenseful""","""kadokado.wav""","90","excessive","RNAdj","different","1","D","suspenseful","Y","13"
"","8350","same-different-html","77","639535","0.0-3.0-74.0","","131-10","""noisy""","""gaya.wav""","191","noisy","SRI","same","1","T","noisy","Y","14"
"","2816","same-different-html","78","645392","0.0-3.0-75.0","","131-10","""excessive""","""kadokado.wav""","90","excessive","RNAdj","same","0","T","excessive","Y","15"
"","527","same-different-html","79","648945","0.0-3.0-76.0","","131-10","""plump""","""pata.wav""","90","sudden","NRI","different","1","D","plump","Y","16"
"","40","same-different-html","80","652025","0.0-3.0-77.0","","131-10","""worn out""","""potcharipotchari.wav""","90","plump","RNRI","different","1","D","worn out","Y","17"
"","264","same-different-html","81","655327","0.0-3.0-78.0","","131-10","""pure""","""mukumuku.wav""","90","pure","RNAdj","same","0","T","pure","Y","18"
"","265","same-different-html","82","658686","0.0-3.0-79.0","","131-10","""beneficial""","""toku.wav""","90","beneficial","NAdj","same","0","T","beneficial","Y","19"
"","2","same-different-html","83","661731","0.0-3.0-80.0","","131-10","""fast asleep""","""mushimushi.wav""","90","humid","RI","different","1","D","fast asleep","Y","20"
"","474","same-different-html","84","665254","0.0-3.0-81.0","","131-10","""sullen""","""musu.wav""","90","sullen","NRI","same","0","T","sullen","Y","21"
"","321","same-different-html","85","668595","0.0-3.0-82.0","","131-10","""humid""","""mushimushi.wav""","90","humid","RI","same","0","T","humid","Y","22"
"","299","same-different-html","86","671971","0.0-3.0-83.0","","131-10","""harsh""","""koku.wav""","90","harsh","NAdj","same","0","T","harsh","Y","23"
"","12140","same-different-html","87","687146","0.0-3.0-84.0","","131-10","""worn out""","""boroboro.wav""","191","worn out","RI","same","1","T","worn out","Y","24"
"","2852","same-different-html","88","693014","0.0-3.0-85.0","","131-10","""sloppy""","""koku.wav""","90","harsh","NAdj","different","1","D","sloppy","Y","25"
"","43","same-different-html","89","696225","0.0-3.0-86.0","","131-10","""glossy""","""damedame.wav""","90","useless","RNAdj","different","1","D","glossy","Y","26"
"","37","same-different-html","90","699288","0.0-3.0-87.0","","131-10","""useless""","""gussuri.wav""","90","fast asleep","NRI","different","1","D","useless","Y","27"
"","122","same-different-html","91","702438","0.0-3.0-88.0","","131-10","""careful""","""gaya.wav""","90","noisy","SRI","different","1","D","careful","Y","28"
"","830","same-different-html","92","706296","0.0-3.0-89.0","","131-10","""clear""","""zatsu.wav""","90","sloppy","NAdj","different","1","D","clear","Y","29"
"","208","same-different-html","93","709551","0.0-3.0-90.0","","131-10","""sullen""","""maremare.wav""","90","rare","RNAdj","different","1","D","sullen","Y","30"
"","446","same-different-html","94","713030","0.0-3.0-91.0","","131-10","""useless""","""damedame.wav""","90","useless","RNAdj","same","0","T","useless","Y","31"
"","498","same-different-html","95","716569","0.0-3.0-92.0","","131-10","""rare""","""hara.wav""","90","suspenseful","SRI","different","1","D","rare","Y","32"
"","443","same-different-html","96","720048","0.0-3.0-93.0","","131-10","""beneficial""","""bisshiribisshiri.wav""","90","crowded","RNRI","different","1","D","beneficial","Y","33"
"","385","same-different-html","97","723469","0.0-3.0-94.0","","131-10","""excessive""","""baka.wav""","90","stupid","NAdj","different","1","D","excessive","Y","34"
"","1600","same-different-html","98","728102","0.0-3.0-95.0","","131-10","""careful""","""jikkurijikkuri.wav""","191","careful","RNRI","same","1","T","careful","Y","35"
"","2638","same-different-html","99","733802","0.0-3.0-96.0","","131-10","""crowded""","""bisshiribisshiri.wav""","90","crowded","RNRI","same","0","T","crowded","Y","36"
"","289","same-different-html","100","737132","0.0-3.0-97.0","","131-10","""crowded""","""bera.wav""","90","chatty","SRI","different","1","D","crowded","Y","37"
"","463","same-different-html","101","740641","0.0-3.0-98.0","","131-10","""harsh""","""kukkiri.wav""","90","clear","NRI","different","1","D","harsh","Y","38"
"","309","same-different-html","102","743982","0.0-3.0-99.0","","131-10","""glossy""","""tsuyatsuya.wav""","90","glossy","RI","same","0","T","glossy","Y","39"
"","324","same-different-html","103","747359","0.0-3.0-100.0","","131-10","""sudden""","""jikkurijikkuri.wav""","90","careful","RNRI","different","1","D","sudden","Y","40"
"","1680","same-different-html","104","752057","0.0-3.0-101.0","","131-10","""humid""","""musu.wav""","90","sullen","NRI","different","1","D","humid","Y","41"
"","4322","same-different-html","105","759430","0.0-3.0-102.0","","131-10","""nonchalantly""","""toku.wav""","90","beneficial","NAdj","different","1","D","nonchalantly","Y","42"
"","2102","same-different-html","106","764604","0.0-3.0-103.0","","131-10","""chatty""","""bera.wav""","90","chatty","SRI","same","0","T","chatty","Y","43"
"","96","same-different-html","107","767758","0.0-3.0-104.0","","131-10","""plump""","""potcharipotchari.wav""","90","plump","RNRI","same","0","T","plump","Y","44"
"","328","same-different-html","108","771257","0.0-3.0-105.0","","131-10","""chatty""","""mukumuku.wav""","90","pure","RNAdj","different","1","D","chatty","Y","45"
"","2537","same-different-html","109","776835","0.0-3.0-106.0","","131-10","""fat""","""debu.wav""","191","fat","SRI","same","1","T","fat","Y","46"
"","1520","same-different-html","110","781416","0.0-3.0-107.0","","131-10","""sloppy""","""zatsu.wav""","191","sloppy","NAdj","same","1","T","sloppy","Y","47"
"","1920","same-different-html","111","786384","0.0-3.0-108.0","","131-10","""fat""","""kerokero.wav""","191","nonchalantly","RNRI","different","0","D","fat","Y","48"
"[{""page_index"":0,""viewing_time"":5259}]","5260","instructions","112","792656","0.0-3.0-109.0","","","","","","","","","","","","",""
