"view_history","rt","trial_type","trial_index","time_elapsed","internal_node_id","responses","Id","word","sound","key_press","TrueMeaning","WordType","answer","correct","TrialType","TargetMeaning","LegalTrial","trialNum"
"[{""page_index"":0,""viewing_time"":3842}]","3843","instructions","0","3844","0.0-0.0","","","","","","","","","","","","",""
"[{""page_index"":0,""viewing_time"":1707},{""page_index"":1,""viewing_time"":2438},{""page_index"":2,""viewing_time"":1882},{""page_index"":3,""viewing_time"":3054},{""page_index"":4,""viewing_time"":54500}]","63581","instructions","1","67425","0.0-1.0","","","","","","","","","","","","",""
"","14631","survey-multi-choice","2","82061","0.0-2.0","{""Q0"":""Yes"",""Q1"":""Yes"",""Q2"":""Yes"",""Q3"":""Yes"",""Q4"":""Yes""}","","","","","","","","","","","",""
"[{""page_index"":0,""viewing_time"":1271},{""page_index"":1,""viewing_time"":3869}]","5140","instructions","3","87201","0.0-3.0-0.0","","","","","","","","","","","","",""
"","2825","same-different-html-trial","4","96035","0.0-3.0-1.0","","0","""sushi""","""prc_sushi.wav""","32","","","","","","","",""
"[{""page_index"":0,""viewing_time"":6610}]","6611","instructions","5","103646","0.0-3.0-2.0","","","","","","","","","","","","",""
"","4658","same-different-html","6","110306","0.0-3.0-3.0","","0","""sushi""","""prc_sushi.wav""","191","","","same","1","","","0",""
"[{""page_index"":0,""viewing_time"":3023}]","3024","instructions","7","114332","0.0-3.0-4.0","","","","","","","","","","","","",""
"","4586","same-different-html","8","120922","0.0-3.0-5.0","","0","""cat""","""prc_sushi.wav""","90","","","different","1","","","0",""
"[{""page_index"":0,""viewing_time"":3371},{""page_index"":1,""viewing_time"":1697}]","5068","instructions","9","126990","0.0-3.0-6.0","","","","","","","","","","","","",""
"","2121","same-different-html-trial","10","135122","0.0-3.0-7.0","","0","""thank you""","""prc_arigato.wav""","32","","","","","","","",""
"[{""page_index"":0,""viewing_time"":2927}]","2927","instructions","11","139050","0.0-3.0-8.0","","","","","","","","","","","","",""
"","4989","same-different-html","12","146042","0.0-3.0-9.0","","0","""thank you""","""prc_arigato.wav""","191","","","same","1","","","0",""
"","3274","same-different-html","13","152323","0.0-3.0-10.0","","0","""cat""","""prc_arigato.wav""","90","","","different","1","","","0",""
"[{""page_index"":0,""viewing_time"":1101},{""page_index"":1,""viewing_time"":14004}]","15105","instructions","14","168429","0.0-3.0-11.0","","","","","","","","","","","","",""
"","1480","same-different-html-trial","15","175915","0.0-3.0-12.0","","6269-7","""rude""","""zukezuke.wav""","32","rude","RI","","","","","","1"
"","828","same-different-html-trial","16","183754","0.0-3.0-13.0","","6269-7","""useless""","""dame.wav""","32","useless","NAdj","","","","","","2"
"","1707","same-different-html-trial","17","192474","0.0-3.0-14.0","","6269-7","""pure""","""mukumuku.wav""","32","pure","RNAdj","","","","","","3"
"","968","same-different-html-trial","18","200451","0.0-3.0-15.0","","6269-7","""worn out""","""boroboro.wav""","32","worn out","RI","","","","","","4"
"","1463","same-different-html-trial","19","208922","0.0-3.0-16.0","","6269-7","""agitated""","""hikuhiku.wav""","32","agitated","RI","","","","","","5"
"","952","same-different-html-trial","20","216882","0.0-3.0-17.0","","6269-7","""happy""","""uki.wav""","32","happy","SRI","","","","","","6"
"","1150","same-different-html-trial","21","225042","0.0-3.0-18.0","","6269-7","""careful""","""jikkurijikkuri.wav""","32","careful","RNRI","","","","","","7"
"","913","same-different-html-trial","22","232962","0.0-3.0-19.0","","6269-7","""sturdy""","""gashi.wav""","32","sturdy","NRI","","","","","","8"
"","1477","same-different-html-trial","23","241450","0.0-3.0-20.0","","6269-7","""resolute""","""bassari.wav""","32","resolute","NRI","","","","","","9"
"","1399","same-different-html-trial","24","249858","0.0-3.0-21.0","","6269-7","""vulgar""","""zokuzoku.wav""","32","vulgar","RNAdj","","","","","","10"
"","1623","same-different-html-trial","25","258490","0.0-3.0-22.0","","6269-7","""dejected""","""gakugaku.wav""","32","dejected","RNRI","","","","","","11"
"","1157","same-different-html-trial","26","266658","0.0-3.0-23.0","","6269-7","""tasteless""","""yabo.wav""","32","tasteless","NAdj","","","","","","12"
"","1006","same-different-html-trial","27","274674","0.0-3.0-24.0","","6269-7","""harsh""","""koku.wav""","32","harsh","NAdj","","","","","","13"
"","1086","same-different-html-trial","28","282770","0.0-3.0-25.0","","6269-7","""hesitant""","""moji.wav""","32","hesitant","SRI","","","","","","14"
"","1334","same-different-html-trial","29","291113","0.0-3.0-26.0","","6269-7","""whole""","""gosogoso.wav""","32","whole","RNRI","","","","","","15"
"","2120","same-different-html-trial","30","300243","0.0-3.0-27.0","","6269-7","""humid""","""mushimushi.wav""","32","humid","RI","","","","","","16"
"","2338","same-different-html-trial","31","309586","0.0-3.0-28.0","","6269-7","""disadvantaged""","""furifuri.wav""","32","disadvantaged","RNAdj","","","","","","17"
"","1137","same-different-html-trial","32","317730","0.0-3.0-29.0","","6269-7","""glossy""","""tsuya.wav""","32","glossy","SRI","","","","","","18"
"","1308","same-different-html-trial","33","326050","0.0-3.0-30.0","","6269-7","""to change ocmpletely""","""gara.wav""","32","to change ocmpletely","NRI","","","","","","19"
"","759","same-different-html-trial","34","333817","0.0-3.0-31.0","","6269-7","""perfect""","""batchiribatchiri.wav""","32","perfect","RNRI","","","","","","20"
"","600","same-different-html-trial","35","341426","0.0-3.0-32.0","","6269-7","""offended""","""kachin.wav""","32","offended","NRI","","","","","","21"
"","1195","same-different-html-trial","36","349626","0.0-3.0-33.0","","6269-7","""subdued""","""jimijimi.wav""","32","subdued","RNAdj","","","","","","22"
"","885","same-different-html-trial","37","357522","0.0-3.0-34.0","","6269-7","""hasty""","""seka.wav""","32","hasty","SRI","","","","","","23"
"","993","same-different-html-trial","38","365522","0.0-3.0-35.0","","6269-7","""fragile""","""yawa.wav""","32","fragile","NAdj","","","","","","24"
"","865","same-different-html-trial","39","373393","0.0-3.0-36.0","","6269-7","""vulgar""","""zokuzoku.wav""","32","vulgar","RNAdj","","","","","","25"
"","1240","same-different-html-trial","40","381641","0.0-3.0-37.0","","6269-7","""perfect""","""batchiribatchiri.wav""","32","perfect","RNRI","","","","","","26"
"","884","same-different-html-trial","41","389538","0.0-3.0-38.0","","6269-7","""dejected""","""gakugaku.wav""","32","dejected","RNRI","","","","","","27"
"","1439","same-different-html-trial","42","397986","0.0-3.0-39.0","","6269-7","""careful""","""jikkurijikkuri.wav""","32","careful","RNRI","","","","","","28"
"","1958","same-different-html-trial","43","406953","0.0-3.0-40.0","","6269-7","""pure""","""mukumuku.wav""","32","pure","RNAdj","","","","","","29"
"","872","same-different-html-trial","44","414834","0.0-3.0-41.0","","6269-7","""tasteless""","""yabo.wav""","32","tasteless","NAdj","","","","","","30"
"","1536","same-different-html-trial","45","423377","0.0-3.0-42.0","","6269-7","""hasty""","""seka.wav""","32","hasty","SRI","","","","","","31"
"","2048","same-different-html-trial","46","432434","0.0-3.0-43.0","","6269-7","""worn out""","""boroboro.wav""","32","worn out","RI","","","","","","32"
"","970","same-different-html-trial","47","440410","0.0-3.0-44.0","","6269-7","""fragile""","""yawa.wav""","32","fragile","NAdj","","","","","","33"
"","2399","same-different-html-trial","48","449818","0.0-3.0-45.0","","6269-7","""useless""","""dame.wav""","32","useless","NAdj","","","","","","34"
"","1302","same-different-html-trial","49","458129","0.0-3.0-46.0","","6269-7","""whole""","""gosogoso.wav""","32","whole","RNRI","","","","","","35"
"","1140","same-different-html-trial","50","466282","0.0-3.0-47.0","","6269-7","""sturdy""","""gashi.wav""","32","sturdy","NRI","","","","","","36"
"","1042","same-different-html-trial","51","474330","0.0-3.0-48.0","","6269-7","""to change ocmpletely""","""gara.wav""","32","to change ocmpletely","NRI","","","","","","37"
"","1216","same-different-html-trial","52","482554","0.0-3.0-49.0","","6269-7","""humid""","""mushimushi.wav""","32","humid","RI","","","","","","38"
"","927","same-different-html-trial","53","490490","0.0-3.0-50.0","","6269-7","""agitated""","""hikuhiku.wav""","32","agitated","RI","","","","","","39"
"","888","same-different-html-trial","54","498386","0.0-3.0-51.0","","6269-7","""glossy""","""tsuya.wav""","32","glossy","SRI","","","","","","40"
"","1000","same-different-html-trial","55","506393","0.0-3.0-52.0","","6269-7","""offended""","""kachin.wav""","32","offended","NRI","","","","","","41"
"","4758","same-different-html-trial","56","518161","0.0-3.0-53.0","","6269-7","""hesitant""","""moji.wav""","32","hesitant","SRI","","","","","","42"
"","1389","same-different-html-trial","57","526561","0.0-3.0-54.0","","6269-7","""resolute""","""bassari.wav""","32","resolute","NRI","","","","","","43"
"","1329","same-different-html-trial","58","534898","0.0-3.0-55.0","","6269-7","""harsh""","""koku.wav""","32","harsh","NAdj","","","","","","44"
"","1109","same-different-html-trial","59","543017","0.0-3.0-56.0","","6269-7","""happy""","""uki.wav""","32","happy","SRI","","","","","","45"
"","966","same-different-html-trial","60","550995","0.0-3.0-57.0","","6269-7","""disadvantaged""","""furifuri.wav""","32","disadvantaged","RNAdj","","","","","","46"
"","1126","same-different-html-trial","61","559132","0.0-3.0-58.0","","6269-7","""rude""","""zukezuke.wav""","32","rude","RI","","","","","","47"
"","2248","same-different-html-trial","62","568387","0.0-3.0-59.0","","6269-7","""subdued""","""jimijimi.wav""","32","subdued","RNAdj","","","","","","48"
"[{""page_index"":0,""viewing_time"":9952}]","9952","instructions","63","579339","0.0-3.0-60.0","","","","","","","","","","","","",""
"","1218","same-different-html","64","582563","0.0-3.0-61.0","","6269-7","""happy""","""gara.wav""","90","to change ocmpletely","NRI","different","1","D","happy","Y","1"
"","1731","same-different-html","65","587298","0.0-3.0-62.0","","6269-7","""hesitant""","""uki.wav""","90","happy","SRI","different","1","D","hesitant","Y","2"
"","1810","same-different-html","66","592115","0.0-3.0-63.0","","6269-7","""whole""","""gosogoso.wav""","90","whole","RNRI","same","0","T","whole","Y","3"
"","1562","same-different-html","67","596682","0.0-3.0-64.0","","6269-7","""vulgar""","""moji.wav""","90","hesitant","SRI","different","1","D","vulgar","Y","4"
"","1851","same-different-html","68","601539","0.0-3.0-65.0","","6269-7","""perfect""","""batchiribatchiri.wav""","191","perfect","RNRI","same","1","T","perfect","Y","5"
"","2307","same-different-html","69","606850","0.0-3.0-66.0","","6269-7","""to change ocmpletely""","""zukezuke.wav""","90","rude","RI","different","1","D","to change ocmpletely","Y","6"
"","1721","same-different-html","70","611578","0.0-3.0-67.0","","6269-7","""offended""","""batchiribatchiri.wav""","90","perfect","RNRI","different","1","D","offended","Y","7"
"","2100","same-different-html","71","616682","0.0-3.0-68.0","","6269-7","""resolute""","""bassari.wav""","191","resolute","NRI","same","1","T","resolute","Y","8"
"","2868","same-different-html","72","622554","0.0-3.0-69.0","","6269-7","""fragile""","""gosogoso.wav""","90","whole","RNRI","different","1","D","fragile","Y","9"
"","1866","same-different-html","73","627426","0.0-3.0-70.0","","6269-7","""pure""","""mukumuku.wav""","191","pure","RNAdj","same","1","T","pure","Y","10"
"","1866","same-different-html","74","632298","0.0-3.0-71.0","","6269-7","""harsh""","""koku.wav""","90","harsh","NAdj","same","0","T","harsh","Y","11"
"","1169","same-different-html","75","636474","0.0-3.0-72.0","","6269-7","""happy""","""uki.wav""","191","happy","SRI","same","1","T","happy","Y","12"
"","1332","same-different-html","76","640810","0.0-3.0-73.0","","6269-7","""worn out""","""boroboro.wav""","191","worn out","RI","same","1","T","worn out","Y","13"
"","2021","same-different-html","77","645834","0.0-3.0-74.0","","6269-7","""tasteless""","""jikkurijikkuri.wav""","90","careful","RNRI","different","1","D","tasteless","Y","14"
"","1900","same-different-html","78","650738","0.0-3.0-75.0","","6269-7","""offended""","""kachin.wav""","191","offended","NRI","same","1","T","offended","Y","15"
"","1555","same-different-html","79","655298","0.0-3.0-76.0","","6269-7","""rude""","""hikuhiku.wav""","90","agitated","RI","different","1","D","rude","Y","16"
"","1656","same-different-html","80","659962","0.0-3.0-77.0","","6269-7","""whole""","""gashi.wav""","90","sturdy","NRI","different","1","D","whole","Y","17"
"","1986","same-different-html","81","664955","0.0-3.0-78.0","","6269-7","""disadvantaged""","""furifuri.wav""","90","disadvantaged","RNAdj","same","0","T","disadvantaged","Y","18"
"","1514","same-different-html","82","669474","0.0-3.0-79.0","","6269-7","""careful""","""jikkurijikkuri.wav""","191","careful","RNRI","same","1","T","careful","Y","19"
"","2022","same-different-html","83","674499","0.0-3.0-80.0","","6269-7","""dejected""","""mukumuku.wav""","90","pure","RNAdj","different","1","D","dejected","Y","20"
"","1753","same-different-html","84","679257","0.0-3.0-81.0","","6269-7","""glossy""","""tsuya.wav""","191","glossy","SRI","same","1","T","glossy","Y","21"
"","2178","same-different-html","85","684442","0.0-3.0-82.0","","6269-7","""useless""","""zokuzoku.wav""","90","vulgar","RNAdj","different","1","D","useless","Y","22"
"","1441","same-different-html","86","688890","0.0-3.0-83.0","","6269-7","""agitated""","""kachin.wav""","90","offended","NRI","different","1","D","agitated","Y","23"
"","2194","same-different-html","87","694090","0.0-3.0-84.0","","6269-7","""humid""","""boroboro.wav""","90","worn out","RI","different","1","D","humid","Y","24"
"","1866","same-different-html","88","698962","0.0-3.0-85.0","","6269-7","""agitated""","""hikuhiku.wav""","191","agitated","RI","same","1","T","agitated","Y","25"
"","2172","same-different-html","89","704138","0.0-3.0-86.0","","6269-7","""sturdy""","""gashi.wav""","90","sturdy","NRI","same","0","T","sturdy","Y","26"
"","2502","same-different-html","90","709645","0.0-3.0-87.0","","6269-7","""pure""","""yawa.wav""","90","fragile","NAdj","different","1","D","pure","Y","27"
"","2174","same-different-html","91","714826","0.0-3.0-88.0","","6269-7","""sturdy""","""bassari.wav""","191","resolute","NRI","different","0","D","sturdy","Y","28"
"","2435","same-different-html","92","720267","0.0-3.0-89.0","","6269-7","""hesitant""","""moji.wav""","90","hesitant","SRI","same","0","T","hesitant","Y","29"
"","1914","same-different-html","93","725186","0.0-3.0-90.0","","6269-7","""hasty""","""yabo.wav""","90","tasteless","NAdj","different","1","D","hasty","Y","30"
"","1389","same-different-html","94","729578","0.0-3.0-91.0","","6269-7","""disadvantaged""","""koku.wav""","90","harsh","NAdj","different","1","D","disadvantaged","Y","31"
"","1995","same-different-html","95","734578","0.0-3.0-92.0","","6269-7","""careful""","""dame.wav""","90","useless","NAdj","different","1","D","careful","Y","32"
"","1497","same-different-html","96","739081","0.0-3.0-93.0","","6269-7","""glossy""","""furifuri.wav""","90","disadvantaged","RNAdj","different","1","D","glossy","Y","33"
"","2163","same-different-html","97","744250","0.0-3.0-94.0","","6269-7","""useless""","""dame.wav""","191","useless","NAdj","same","1","T","useless","Y","34"
"","2035","same-different-html","98","749290","0.0-3.0-95.0","","6269-7","""fragile""","""yawa.wav""","191","fragile","NAdj","same","1","T","fragile","Y","35"
"","1635","same-different-html","99","753929","0.0-3.0-96.0","","6269-7","""hasty""","""seka.wav""","90","hasty","SRI","same","0","T","hasty","Y","36"
"","1913","same-different-html","100","758850","0.0-3.0-97.0","","6269-7","""to change ocmpletely""","""gara.wav""","191","to change ocmpletely","NRI","same","1","T","to change ocmpletely","Y","37"
"","1923","same-different-html","101","763778","0.0-3.0-98.0","","6269-7","""subdued""","""jimijimi.wav""","90","subdued","RNAdj","same","0","T","subdued","Y","38"
"","1636","same-different-html","102","768418","0.0-3.0-99.0","","6269-7","""rude""","""zukezuke.wav""","191","rude","RI","same","1","T","rude","Y","39"
"","1690","same-different-html","103","773115","0.0-3.0-100.0","","6269-7","""harsh""","""mushimushi.wav""","90","humid","RI","different","1","D","harsh","Y","40"
"","1865","same-different-html","104","777986","0.0-3.0-101.0","","6269-7","""resolute""","""jimijimi.wav""","90","subdued","RNAdj","different","1","D","resolute","Y","41"
"","1321","same-different-html","105","782314","0.0-3.0-102.0","","6269-7","""worn out""","""tsuya.wav""","90","glossy","SRI","different","1","D","worn out","Y","42"
"","1986","same-different-html","106","787305","0.0-3.0-103.0","","6269-7","""subdued""","""seka.wav""","90","hasty","SRI","different","1","D","subdued","Y","43"
"","1907","same-different-html","107","792218","0.0-3.0-104.0","","6269-7","""perfect""","""gakugaku.wav""","90","dejected","RNRI","different","1","D","perfect","Y","44"
"","1699","same-different-html","108","796921","0.0-3.0-105.0","","6269-7","""humid""","""mushimushi.wav""","191","humid","RI","same","1","T","humid","Y","45"
"","3062","same-different-html","109","802986","0.0-3.0-106.0","","6269-7","""dejected""","""gakugaku.wav""","191","dejected","RNRI","same","1","T","dejected","Y","46"
"","2188","same-different-html","110","808178","0.0-3.0-107.0","","6269-7","""tasteless""","""yabo.wav""","90","tasteless","NAdj","same","0","T","tasteless","Y","47"
"","2747","same-different-html","111","813930","0.0-3.0-108.0","","6269-7","""vulgar""","""zokuzoku.wav""","191","vulgar","RNAdj","same","1","T","vulgar","Y","48"
"[{""page_index"":0,""viewing_time"":8590}]","8590","instructions","112","823522","0.0-3.0-109.0","","","","","","","","","","","","",""
