"view_history","rt","trial_type","trial_index","time_elapsed","internal_node_id","responses","Id","word","sound","key_press","TrueMeaning","WordType","answer","correct","TrialType","TargetMeaning","LegalTrial","trialNum"
"[{""page_index"":0,""viewing_time"":45635}]","45637","instructions","0","45637","0.0-0.0","","","","","","","","","","","","",""
"[{""page_index"":0,""viewing_time"":1193},{""page_index"":1,""viewing_time"":998},{""page_index"":2,""viewing_time"":1118},{""page_index"":3,""viewing_time"":514},{""page_index"":4,""viewing_time"":1459}]","5283","instructions","1","50922","0.0-1.0","","","","","","","","","","","","",""
"","11577","survey-multi-choice","2","62513","0.0-2.0","{""Q0"":""Yes"",""Q1"":""Yes"",""Q2"":""Yes"",""Q3"":""Yes"",""Q4"":""Yes""}","","","","","","","","","","","",""
"[{""page_index"":0,""viewing_time"":2572},{""page_index"":1,""viewing_time"":1785}]","4357","instructions","3","66870","0.0-3.0-0.0","","","","","","","","","","","","",""
"","3068","same-different-html-trial","4","75957","0.0-3.0-1.0","","0","""sushi""","""prc_sushi.wav""","32","","","","","","","",""
"[{""page_index"":0,""viewing_time"":4112}]","4112","instructions","5","81069","0.0-3.0-2.0","","","","","","","","","","","","",""
"","5387","same-different-html","6","88459","0.0-3.0-3.0","","0","""sushi""","""prc_sushi.wav""","191","","","same","1","","","0",""
"[{""page_index"":0,""viewing_time"":1800}]","1800","instructions","7","91262","0.0-3.0-4.0","","","","","","","","","","","","",""
"","4304","same-different-html","8","97567","0.0-3.0-5.0","","0","""cat""","""prc_sushi.wav""","90","","","different","1","","","0",""
"[{""page_index"":0,""viewing_time"":1605},{""page_index"":1,""viewing_time"":1237}]","2843","instructions","9","101409","0.0-3.0-6.0","","","","","","","","","","","","",""
"","5392","same-different-html-trial","10","112806","0.0-3.0-7.0","","0","""thank you""","""prc_arigato.wav""","32","","","","","","","",""
"[{""page_index"":0,""viewing_time"":2719}]","2719","instructions","11","116525","0.0-3.0-8.0","","","","","","","","","","","","",""
"","5767","same-different-html","12","124296","0.0-3.0-9.0","","0","""thank you""","""prc_arigato.wav""","191","","","same","1","","","0",""
"","3991","same-different-html","13","131289","0.0-3.0-10.0","","0","""cat""","""prc_arigato.wav""","90","","","different","1","","","0",""
"[{""page_index"":0,""viewing_time"":1849},{""page_index"":1,""viewing_time"":40128}]","41977","instructions","14","174266","0.0-3.0-11.0","","","","","","","","","","","","",""
"","2166","same-different-html-trial","15","182438","0.0-3.0-12.0","","6651-6","""free""","""hima.wav""","32","free","NAdj","","","","","","1"
"","1167","same-different-html-trial","16","190610","0.0-3.0-13.0","","6651-6","""whispering""","""hisohiso.wav""","32","whispering","RI","","","","","","2"
"","636","same-different-html-trial","17","198253","0.0-3.0-14.0","","6651-6","""sloppy""","""zatsu.wav""","32","sloppy","NAdj","","","","","","3"
"","1735","same-different-html-trial","18","206993","0.0-3.0-15.0","","6651-6","""shivering""","""buru.wav""","32","shivering","SRI","","","","","","4"
"","803","same-different-html-trial","19","214805","0.0-3.0-16.0","","6651-6","""supple""","""shinnarishinnari.wav""","32","supple","RNRI","","","","","","5"
"","1550","same-different-html-trial","20","223361","0.0-3.0-17.0","","6651-6","""harsh""","""koku.wav""","32","harsh","NAdj","","","","","","6"
"","526","same-different-html-trial","21","230891","0.0-3.0-18.0","","6651-6","""decisive""","""pisha.wav""","32","decisive","NRI","","","","","","7"
"","20453","same-different-html-trial","22","260291","0.0-3.0-19.0","","6651-6","""hesitant""","""mojimoji.wav""","32","hesitant","RI","","","","","","8"
"","1784","same-different-html-trial","23","269081","0.0-3.0-20.0","","6651-6","""tasteless""","""yaboyabo.wav""","32","tasteless","RNAdj","","","","","","9"
"","26623","same-different-html-trial","24","305463","0.0-3.0-21.0","","6651-6","""hasty""","""seka.wav""","32","hasty","SRI","","","","","","10"
"","517","same-different-html-trial","25","312985","0.0-3.0-22.0","","6651-6","""smooth""","""nopperinopperi.wav""","32","smooth","RNRI","","","","","","11"
"","659","same-different-html-trial","26","320651","0.0-3.0-23.0","","6651-6","""careful""","""jikkuri.wav""","32","careful","NRI","","","","","","12"
"","1658","same-different-html-trial","27","329316","0.0-3.0-24.0","","6651-6","""chubby""","""buku.wav""","32","chubby","SRI","","","","","","13"
"","1347","same-different-html-trial","28","337670","0.0-3.0-25.0","","6651-6","""pure""","""mukumuku.wav""","32","pure","RNAdj","","","","","","14"
"","676","same-different-html-trial","29","345351","0.0-3.0-26.0","","6651-6","""rash""","""mucha.wav""","32","rash","NAdj","","","","","","15"
"","3494","same-different-html-trial","30","355849","0.0-3.0-27.0","","6651-6","""useless""","""damedame.wav""","32","useless","RNAdj","","","","","","16"
"","3269","same-different-html-trial","31","366126","0.0-3.0-28.0","","6651-6","""crowded""","""bisshiri.wav""","32","crowded","NRI","","","","","","17"
"","1665","same-different-html-trial","32","374798","0.0-3.0-29.0","","6651-6","""offended""","""kachinkachin.wav""","32","offended","RNRI","","","","","","18"
"","3365","same-different-html-trial","33","385170","0.0-3.0-30.0","","6651-6","""messy""","""gochagocha.wav""","32","messy","RI","","","","","","19"
"","729","same-different-html-trial","34","392908","0.0-3.0-31.0","","6651-6","""fragile""","""yawayawa.wav""","32","fragile","RNAdj","","","","","","20"
"","1265","same-different-html-trial","35","401179","0.0-3.0-32.0","","6651-6","""chatty""","""bera.wav""","32","chatty","SRI","","","","","","21"
"","16915","same-different-html-trial","36","425098","0.0-3.0-33.0","","6651-6","""worn out""","""boroboro.wav""","32","worn out","RI","","","","","","22"
"","443","same-different-html-trial","37","432551","0.0-3.0-34.0","","6651-6","""sudden""","""patapata.wav""","32","sudden","RNRI","","","","","","23"
"","1246","same-different-html-trial","38","440802","0.0-3.0-35.0","","6651-6","""sullen""","""musu.wav""","32","sullen","NRI","","","","","","24"
"","2558","same-different-html-trial","39","450366","0.0-3.0-36.0","","6651-6","""tasteless""","""yaboyabo.wav""","32","tasteless","RNAdj","","","","","","25"
"","14550","same-different-html-trial","40","471920","0.0-3.0-37.0","","6651-6","""decisive""","""pisha.wav""","32","decisive","NRI","","","","","","26"
"","236","same-different-html-trial","41","479161","0.0-3.0-38.0","","6651-6","""pure""","""mukumuku.wav""","32","pure","RNAdj","","","","","","27"
"","49","same-different-html-trial","42","486216","0.0-3.0-39.0","","6651-6","""worn out""","""boroboro.wav""","32","worn out","RI","","","","","","28"
"","317","same-different-html-trial","43","493537","0.0-3.0-40.0","","6651-6","""fragile""","""yawayawa.wav""","32","fragile","RNAdj","","","","","","29"
"","1022","same-different-html-trial","44","501565","0.0-3.0-41.0","","6651-6","""free""","""hima.wav""","32","free","NAdj","","","","","","30"
"","172","same-different-html-trial","45","508743","0.0-3.0-42.0","","6651-6","""crowded""","""bisshiri.wav""","32","crowded","NRI","","","","","","31"
"","564","same-different-html-trial","46","516312","0.0-3.0-43.0","","6651-6","""hasty""","""seka.wav""","32","hasty","SRI","","","","","","32"
"","497","same-different-html-trial","47","523813","0.0-3.0-44.0","","6651-6","""whispering""","""hisohiso.wav""","32","whispering","RI","","","","","","33"
"","1142","same-different-html-trial","48","531962","0.0-3.0-45.0","","6651-6","""careful""","""jikkuri.wav""","32","careful","NRI","","","","","","34"
"","1028","same-different-html-trial","49","539995","0.0-3.0-46.0","","6651-6","""chatty""","""bera.wav""","32","chatty","SRI","","","","","","35"
"","437","same-different-html-trial","50","547438","0.0-3.0-47.0","","6651-6","""sudden""","""patapata.wav""","32","sudden","RNRI","","","","","","36"
"","963","same-different-html-trial","51","555408","0.0-3.0-48.0","","6651-6","""sloppy""","""zatsu.wav""","32","sloppy","NAdj","","","","","","37"
"","2714","same-different-html-trial","52","568556","0.0-3.0-49.0","","6651-6","""messy""","""gochagocha.wav""","32","messy","RI","","","","","","38"
"","1598","same-different-html-trial","53","577614","0.0-3.0-50.0","","6651-6","""offended""","""kachinkachin.wav""","32","offended","RNRI","","","","","","39"
"","424","same-different-html-trial","54","585043","0.0-3.0-51.0","","6651-6","""harsh""","""koku.wav""","32","harsh","NAdj","","","","","","40"
"","931","same-different-html-trial","55","592980","0.0-3.0-52.0","","6651-6","""rash""","""mucha.wav""","32","rash","NAdj","","","","","","41"
"","1094","same-different-html-trial","56","601083","0.0-3.0-53.0","","6651-6","""useless""","""damedame.wav""","32","useless","RNAdj","","","","","","42"
"","743","same-different-html-trial","57","608834","0.0-3.0-54.0","","6651-6","""shivering""","""buru.wav""","32","shivering","SRI","","","","","","43"
"","912","same-different-html-trial","58","616757","0.0-3.0-55.0","","6651-6","""sullen""","""musu.wav""","32","sullen","NRI","","","","","","44"
"","699","same-different-html-trial","59","624463","0.0-3.0-56.0","","6651-6","""supple""","""shinnarishinnari.wav""","32","supple","RNRI","","","","","","45"
"","747","same-different-html-trial","60","632216","0.0-3.0-57.0","","6651-6","""smooth""","""nopperinopperi.wav""","32","smooth","RNRI","","","","","","46"
"","44","same-different-html-trial","61","639265","0.0-3.0-58.0","","6651-6","""chubby""","""buku.wav""","32","chubby","SRI","","","","","","47"
"","104","same-different-html-trial","62","646374","0.0-3.0-59.0","","6651-6","""hesitant""","""mojimoji.wav""","32","hesitant","RI","","","","","","48"
"[{""page_index"":0,""viewing_time"":7696}]","7696","instructions","63","655070","0.0-3.0-60.0","","","","","","","","","","","","",""
"","3634","same-different-html","64","660707","0.0-3.0-61.0","","6651-6","""useless""","""patapata.wav""","90","sudden","RNRI","different","1","D","useless","Y","1"
"","3540","same-different-html","65","667251","0.0-3.0-62.0","","6651-6","""careful""","""buku.wav""","90","chubby","SRI","different","1","D","careful","Y","2"
"","2865","same-different-html","66","673799","0.0-3.0-63.0","","6651-6","""chatty""","""gochagocha.wav""","191","messy","RI","different","0","D","chatty","Y","3"
"","3095","same-different-html","67","679899","0.0-3.0-64.0","","6651-6","""sloppy""","""zatsu.wav""","90","sloppy","NAdj","same","0","T","sloppy","Y","4"
"","2980","same-different-html","68","686715","0.0-3.0-65.0","","6651-6","""worn out""","""damedame.wav""","90","useless","RNAdj","different","1","D","worn out","Y","5"
"","2948","same-different-html","69","692671","0.0-3.0-66.0","","6651-6","""hasty""","""seka.wav""","191","hasty","SRI","same","1","T","hasty","Y","6"
"","3815","same-different-html","70","699491","0.0-3.0-67.0","","6651-6","""whispering""","""yawayawa.wav""","191","fragile","RNAdj","different","0","D","whispering","Y","7"
"","2938","same-different-html","71","705431","0.0-3.0-68.0","","6651-6","""messy""","""gochagocha.wav""","90","messy","RI","same","0","T","messy","Y","8"
"","2883","same-different-html","72","711316","0.0-3.0-69.0","","6651-6","""fragile""","""mucha.wav""","90","rash","NAdj","different","1","D","fragile","Y","9"
"","2922","same-different-html","73","717241","0.0-3.0-70.0","","6651-6","""fragile""","""yawayawa.wav""","90","fragile","RNAdj","same","0","T","fragile","Y","10"
"","2672","same-different-html","74","722917","0.0-3.0-71.0","","6651-6","""pure""","""yaboyabo.wav""","90","tasteless","RNAdj","different","1","D","pure","Y","11"
"","2988","same-different-html","75","728907","0.0-3.0-72.0","","6651-6","""careful""","""jikkuri.wav""","191","careful","NRI","same","1","T","careful","Y","12"
"","2584","same-different-html","76","734495","0.0-3.0-73.0","","6651-6","""worn out""","""boroboro.wav""","191","worn out","RI","same","1","T","worn out","Y","13"
"","4261","same-different-html","77","741758","0.0-3.0-74.0","","6651-6","""chubby""","""seka.wav""","90","hasty","SRI","different","1","D","chubby","Y","14"
"","2294","same-different-html","78","747054","0.0-3.0-75.0","","6651-6","""supple""","""musu.wav""","90","sullen","NRI","different","1","D","supple","Y","15"
"","1745","same-different-html","79","751802","0.0-3.0-76.0","","6651-6","""free""","""hima.wav""","90","free","NAdj","same","0","T","free","Y","16"
"","3599","same-different-html","80","758405","0.0-3.0-77.0","","6651-6","""sullen""","""musu.wav""","90","sullen","NRI","same","0","T","sullen","Y","17"
"","2372","same-different-html","81","763779","0.0-3.0-78.0","","6651-6","""tasteless""","""mojimoji.wav""","90","hesitant","RI","different","1","D","tasteless","Y","18"
"","3979","same-different-html","82","770761","0.0-3.0-79.0","","6651-6","""smooth""","""jikkuri.wav""","191","careful","NRI","different","0","D","smooth","Y","19"
"","2851","same-different-html","83","776614","0.0-3.0-80.0","","6651-6","""shivering""","""mukumuku.wav""","90","pure","RNAdj","different","1","D","shivering","Y","20"
"","2944","same-different-html","84","782562","0.0-3.0-81.0","","6651-6","""tasteless""","""yaboyabo.wav""","191","tasteless","RNAdj","same","1","T","tasteless","Y","21"
"","2577","same-different-html","85","788142","0.0-3.0-82.0","","6651-6","""free""","""bera.wav""","90","chatty","SRI","different","1","D","free","Y","22"
"","2722","same-different-html","86","793866","0.0-3.0-83.0","","6651-6","""harsh""","""boroboro.wav""","191","worn out","RI","different","0","D","harsh","Y","23"
"","3822","same-different-html","87","800691","0.0-3.0-84.0","","6651-6","""offended""","""bisshiri.wav""","191","crowded","NRI","different","0","D","offended","Y","24"
"","2304","same-different-html","88","805998","0.0-3.0-85.0","","6651-6","""useless""","""damedame.wav""","90","useless","RNAdj","same","0","T","useless","Y","25"
"","2022","same-different-html","89","811023","0.0-3.0-86.0","","6651-6","""hesitant""","""mojimoji.wav""","191","hesitant","RI","same","1","T","hesitant","Y","26"
"","1847","same-different-html","90","815874","0.0-3.0-87.0","","6651-6","""rash""","""mucha.wav""","191","rash","NAdj","same","1","T","rash","Y","27"
"","1357","same-different-html","91","820234","0.0-3.0-88.0","","6651-6","""hesitant""","""buru.wav""","90","shivering","SRI","different","1","D","hesitant","Y","28"
"","2746","same-different-html","92","825982","0.0-3.0-89.0","","6651-6","""offended""","""kachinkachin.wav""","90","offended","RNRI","same","0","T","offended","Y","29"
"","2760","same-different-html","93","831745","0.0-3.0-90.0","","6651-6","""shivering""","""buru.wav""","90","shivering","SRI","same","0","T","shivering","Y","30"
"","3153","same-different-html","94","837903","0.0-3.0-91.0","","6651-6","""decisive""","""pisha.wav""","191","decisive","NRI","same","1","T","decisive","Y","31"
"","2872","same-different-html","95","843779","0.0-3.0-92.0","","6651-6","""harsh""","""koku.wav""","90","harsh","NAdj","same","0","T","harsh","Y","32"
"","3744","same-different-html","96","850526","0.0-3.0-93.0","","6651-6","""pure""","""mukumuku.wav""","90","pure","RNAdj","same","0","T","pure","Y","33"
"","2634","same-different-html","97","856162","0.0-3.0-94.0","","6651-6","""sloppy""","""pisha.wav""","90","decisive","NRI","different","1","D","sloppy","Y","34"
"","2681","same-different-html","98","861846","0.0-3.0-95.0","","6651-6","""sudden""","""nopperinopperi.wav""","191","smooth","RNRI","different","0","D","sudden","Y","35"
"","2851","same-different-html","99","867699","0.0-3.0-96.0","","6651-6","""decisive""","""kachinkachin.wav""","90","offended","RNRI","different","1","D","decisive","Y","36"
"","2855","same-different-html","100","873558","0.0-3.0-97.0","","6651-6","""messy""","""hisohiso.wav""","90","whispering","RI","different","1","D","messy","Y","37"
"","3093","same-different-html","101","879653","0.0-3.0-98.0","","6651-6","""smooth""","""nopperinopperi.wav""","90","smooth","RNRI","same","0","T","smooth","Y","38"
"","9791","same-different-html","102","892447","0.0-3.0-99.0","","6651-6","""crowded""","""hima.wav""","191","free","NAdj","different","0","D","crowded","Y","39"
"","3153","same-different-html","103","898603","0.0-3.0-100.0","","6651-6","""chubby""","""buku.wav""","90","chubby","SRI","same","0","T","chubby","Y","40"
"","5806","same-different-html","104","907411","0.0-3.0-101.0","","6651-6","""chatty""","""bera.wav""","191","chatty","SRI","same","1","T","chatty","Y","41"
"","3669","same-different-html","105","914081","0.0-3.0-102.0","","6651-6","""rash""","""zatsu.wav""","90","sloppy","NAdj","different","1","D","rash","Y","42"
"","4046","same-different-html","106","921890","0.0-3.0-103.0","","6651-6","""supple""","""shinnarishinnari.wav""","191","supple","RNRI","same","1","T","supple","Y","43"
"","3021","same-different-html","107","927913","0.0-3.0-104.0","","6651-6","""hasty""","""shinnarishinnari.wav""","90","supple","RNRI","different","1","D","hasty","Y","44"
"","3174","same-different-html","108","934089","0.0-3.0-105.0","","6651-6","""sudden""","""patapata.wav""","191","sudden","RNRI","same","1","T","sudden","Y","45"
"","3378","same-different-html","109","941216","0.0-3.0-106.0","","6651-6","""crowded""","""bisshiri.wav""","90","crowded","NRI","same","0","T","crowded","Y","46"
"","4093","same-different-html","110","948311","0.0-3.0-107.0","","6651-6","""sullen""","""koku.wav""","90","harsh","NAdj","different","1","D","sullen","Y","47"
"","4653","same-different-html","111","955968","0.0-3.0-108.0","","6651-6","""whispering""","""hisohiso.wav""","191","whispering","RI","same","1","T","whispering","Y","48"
"[{""page_index"":0,""viewing_time"":8957}]","8957","instructions","112","965927","0.0-3.0-109.0","","","","","","","","","","","","",""
