"view_history","rt","trial_type","trial_index","time_elapsed","internal_node_id","responses","Id","word","sound","key_press","TrueMeaning","WordType","answer","correct","TrialType","TargetMeaning","LegalTrial","trialNum"
"[{""page_index"":0,""viewing_time"":2299}]","2300","instructions","0","2303","0.0-0.0","","","","","","","","","","","","",""
"[{""page_index"":0,""viewing_time"":1327},{""page_index"":1,""viewing_time"":2519},{""page_index"":2,""viewing_time"":2072},{""page_index"":3,""viewing_time"":9271},{""page_index"":4,""viewing_time"":3231}]","18421","instructions","1","20724","0.0-1.0","","","","","","","","","","","","",""
"","13715","survey-multi-choice","2","34447","0.0-2.0","{""Q0"":""Yes"",""Q1"":""Yes"",""Q2"":""Yes"",""Q3"":""Yes"",""Q4"":""Yes""}","","","","","","","","","","","",""
"[{""page_index"":0,""viewing_time"":4009},{""page_index"":1,""viewing_time"":4589}]","8598","instructions","3","43046","0.0-3.0-0.0","","","","","","","","","","","","",""
"","5821","same-different-html-trial","4","54892","0.0-3.0-1.0","","0","""sushi""","""prc_sushi.wav""","32","","","","","","","",""
"[{""page_index"":0,""viewing_time"":1218}]","1218","instructions","5","57114","0.0-3.0-2.0","","","","","","","","","","","","",""
"","12235","same-different-html","6","71356","0.0-3.0-3.0","","0","""sushi""","""prc_sushi.wav""","90","","","same","0","","","0",""
"[{""page_index"":0,""viewing_time"":4055}]","4056","instructions","7","76414","0.0-3.0-4.0","","","","","","","","","","","","",""
"","3149","same-different-html","8","81572","0.0-3.0-5.0","","0","""cat""","""prc_sushi.wav""","191","","","different","0","","","0",""
"[{""page_index"":0,""viewing_time"":1184},{""page_index"":1,""viewing_time"":1360}]","2545","instructions","9","85122","0.0-3.0-6.0","","","","","","","","","","","","",""
"","1403","same-different-html-trial","10","92546","0.0-3.0-7.0","","0","""thank you""","""prc_arigato.wav""","32","","","","","","","",""
"[{""page_index"":0,""viewing_time"":1563}]","1564","instructions","11","95112","0.0-3.0-8.0","","","","","","","","","","","","",""
"","4979","same-different-html","12","102103","0.0-3.0-9.0","","0","""thank you""","""prc_arigato.wav""","191","","","same","1","","","0",""
"","3319","same-different-html","13","108436","0.0-3.0-10.0","","0","""cat""","""prc_arigato.wav""","90","","","different","1","","","0",""
"[{""page_index"":0,""viewing_time"":1694},{""page_index"":1,""viewing_time"":6770}]","8464","instructions","14","117903","0.0-3.0-11.0","","","","","","","","","","","","",""
"","2763","same-different-html-trial","15","126686","0.0-3.0-12.0","","5336-4","""dejected""","""gakugaku.wav""","32","dejected","RNRI","","","","","","1"
"","509","same-different-html-trial","16","134220","0.0-3.0-13.0","","5336-4","""rash""","""mucha.wav""","32","rash","NAdj","","","","","","2"
"","587","same-different-html-trial","17","141827","0.0-3.0-14.0","","5336-4","""energetic""","""kibi.wav""","32","energetic","SRI","","","","","","3"
"","2503","same-different-html-trial","18","151347","0.0-3.0-15.0","","5336-4","""humid""","""mushi.wav""","32","humid","SRI","","","","","","4"
"","785","same-different-html-trial","19","159154","0.0-3.0-16.0","","5336-4","""deficient""","""fubifubi.wav""","32","deficient","RNAdj","","","","","","5"
"","1177","same-different-html-trial","20","167355","0.0-3.0-17.0","","5336-4","""sloppy""","""zatsu.wav""","32","sloppy","NAdj","","","","","","6"
"","684","same-different-html-trial","21","175062","0.0-3.0-18.0","","5336-4","""hesitant""","""mojimoji.wav""","32","hesitant","RI","","","","","","7"
"","720","same-different-html-trial","22","182806","0.0-3.0-19.0","","5336-4","""decisive""","""pisha.wav""","32","decisive","NRI","","","","","","8"
"","4291","same-different-html-trial","23","194123","0.0-3.0-20.0","","5336-4","""subdued""","""jimi.wav""","32","subdued","NAdj","","","","","","9"
"","145","same-different-html-trial","24","201295","0.0-3.0-21.0","","5336-4","""gaping""","""poka.wav""","32","gaping","NRI","","","","","","10"
"","155","same-different-html-trial","25","208475","0.0-3.0-22.0","","5336-4","""steaming""","""hokahoka.wav""","32","steaming","RI","","","","","","11"
"","2039","same-different-html-trial","26","217532","0.0-3.0-23.0","","5336-4","""smooth""","""nopperi.wav""","32","smooth","NRI","","","","","","12"
"","576","same-different-html-trial","27","225126","0.0-3.0-24.0","","5336-4","""messy""","""gocha.wav""","32","messy","SRI","","","","","","13"
"","541","same-different-html-trial","28","232688","0.0-3.0-25.0","","5336-4","""resolute""","""bassari.wav""","32","resolute","NRI","","","","","","14"
"","176","same-different-html-trial","29","239889","0.0-3.0-26.0","","5336-4","""crowded""","""bisshiribisshiri.wav""","32","crowded","RNRI","","","","","","15"
"","582","same-different-html-trial","30","247495","0.0-3.0-27.0","","5336-4","""fragile""","""yawa.wav""","32","fragile","NAdj","","","","","","16"
"","812","same-different-html-trial","31","255328","0.0-3.0-28.0","","5336-4","""rare""","""maremare.wav""","32","rare","RNAdj","","","","","","17"
"","1452","same-different-html-trial","32","263799","0.0-3.0-29.0","","5336-4","""sturdy""","""gashigashi.wav""","32","sturdy","RNRI","","","","","","18"
"","3102","same-different-html-trial","33","273920","0.0-3.0-30.0","","5336-4","""impossible""","""murimuri.wav""","32","impossible","RNAdj","","","","","","19"
"","911","same-different-html-trial","34","281855","0.0-3.0-31.0","","5336-4","""pure""","""mukumuku.wav""","32","pure","RNAdj","","","","","","20"
"","1720","same-different-html-trial","35","290600","0.0-3.0-32.0","","5336-4","""whole""","""gosogoso.wav""","32","whole","RNRI","","","","","","21"
"","3584","same-different-html-trial","36","301209","0.0-3.0-33.0","","5336-4","""rude""","""zuke.wav""","32","rude","SRI","","","","","","22"
"","1029","same-different-html-trial","37","309257","0.0-3.0-34.0","","5336-4","""fat""","""debudebu.wav""","32","fat","RI","","","","","","23"
"","746","same-different-html-trial","38","317024","0.0-3.0-35.0","","5336-4","""stiff""","""gowagowa.wav""","32","stiff","RI","","","","","","24"
"","1029","same-different-html-trial","39","325075","0.0-3.0-36.0","","5336-4","""steaming""","""hokahoka.wav""","32","steaming","RI","","","","","","25"
"","875","same-different-html-trial","40","332975","0.0-3.0-37.0","","5336-4","""humid""","""mushi.wav""","32","humid","SRI","","","","","","26"
"","973","same-different-html-trial","41","340964","0.0-3.0-38.0","","5336-4","""sturdy""","""gashigashi.wav""","32","sturdy","RNRI","","","","","","27"
"","956","same-different-html-trial","42","348942","0.0-3.0-39.0","","5336-4","""whole""","""gosogoso.wav""","32","whole","RNRI","","","","","","28"
"","2483","same-different-html-trial","43","358451","0.0-3.0-40.0","","5336-4","""sloppy""","""zatsu.wav""","32","sloppy","NAdj","","","","","","29"
"","1681","same-different-html-trial","44","367156","0.0-3.0-41.0","","5336-4","""stiff""","""gowagowa.wav""","32","stiff","RI","","","","","","30"
"","254","same-different-html-trial","45","374429","0.0-3.0-42.0","","5336-4","""energetic""","""kibi.wav""","32","energetic","SRI","","","","","","31"
"","759","same-different-html-trial","46","382212","0.0-3.0-43.0","","5336-4","""subdued""","""jimi.wav""","32","subdued","NAdj","","","","","","32"
"","346","same-different-html-trial","47","389579","0.0-3.0-44.0","","5336-4","""deficient""","""fubifubi.wav""","32","deficient","RNAdj","","","","","","33"
"","1021","same-different-html-trial","48","397618","0.0-3.0-45.0","","5336-4","""decisive""","""pisha.wav""","32","decisive","NRI","","","","","","34"
"","1108","same-different-html-trial","49","405746","0.0-3.0-46.0","","5336-4","""rare""","""maremare.wav""","32","rare","RNAdj","","","","","","35"
"","127","same-different-html-trial","50","412898","0.0-3.0-47.0","","5336-4","""hesitant""","""mojimoji.wav""","32","hesitant","RI","","","","","","36"
"","705","same-different-html-trial","51","420628","0.0-3.0-48.0","","5336-4","""crowded""","""bisshiribisshiri.wav""","32","crowded","RNRI","","","","","","37"
"","1027","same-different-html-trial","52","428674","0.0-3.0-49.0","","5336-4","""messy""","""gocha.wav""","32","messy","SRI","","","","","","38"
"","407","same-different-html-trial","53","436102","0.0-3.0-50.0","","5336-4","""dejected""","""gakugaku.wav""","32","dejected","RNRI","","","","","","39"
"","2053","same-different-html-trial","54","445180","0.0-3.0-51.0","","5336-4","""impossible""","""murimuri.wav""","32","impossible","RNAdj","","","","","","40"
"","1013","same-different-html-trial","55","453220","0.0-3.0-52.0","","5336-4","""rude""","""zuke.wav""","32","rude","SRI","","","","","","41"
"","1713","same-different-html-trial","56","461956","0.0-3.0-53.0","","5336-4","""rash""","""mucha.wav""","32","rash","NAdj","","","","","","42"
"","2275","same-different-html-trial","57","471252","0.0-3.0-54.0","","5336-4","""resolute""","""bassari.wav""","32","resolute","NRI","","","","","","43"
"","1352","same-different-html-trial","58","479633","0.0-3.0-55.0","","5336-4","""fat""","""debudebu.wav""","32","fat","RI","","","","","","44"
"","1321","same-different-html-trial","59","487982","0.0-3.0-56.0","","5336-4","""smooth""","""nopperi.wav""","32","smooth","NRI","","","","","","45"
"","2331","same-different-html-trial","60","497341","0.0-3.0-57.0","","5336-4","""pure""","""mukumuku.wav""","32","pure","RNAdj","","","","","","46"
"","717","same-different-html-trial","61","505086","0.0-3.0-58.0","","5336-4","""gaping""","""poka.wav""","32","gaping","NRI","","","","","","47"
"","1514","same-different-html-trial","62","513633","0.0-3.0-59.0","","5336-4","""fragile""","""yawa.wav""","32","fragile","NAdj","","","","","","48"
"[{""page_index"":0,""viewing_time"":6259}]","6259","instructions","63","520894","0.0-3.0-60.0","","","","","","","","","","","","",""
"","851","same-different-html","64","523760","0.0-3.0-61.0","","5336-4","""steaming""","""hokahoka.wav""","90","steaming","RI","same","0","T","steaming","Y","1"
"","755","same-different-html","65","527534","0.0-3.0-62.0","","5336-4","""rude""","""mukumuku.wav""","191","pure","RNAdj","different","0","D","rude","Y","2"
"","618","same-different-html","66","531170","0.0-3.0-63.0","","5336-4","""energetic""","""kibi.wav""","191","energetic","SRI","same","1","T","energetic","Y","3"
"","1318","same-different-html","67","535502","0.0-3.0-64.0","","5336-4","""decisive""","""pisha.wav""","90","decisive","NRI","same","0","T","decisive","Y","4"
"","173","same-different-html","68","538693","0.0-3.0-65.0","","5336-4","""rash""","""mucha.wav""","90","rash","NAdj","same","0","T","rash","Y","5"
"","531","same-different-html","69","542245","0.0-3.0-66.0","","5336-4","""humid""","""mushi.wav""","191","humid","SRI","same","1","T","humid","Y","6"
"","776","same-different-html","70","546041","0.0-3.0-67.0","","5336-4","""pure""","""gosogoso.wav""","90","whole","RNRI","different","1","D","pure","Y","7"
"","4124","same-different-html","71","553183","0.0-3.0-68.0","","5336-4","""rare""","""gowagowa.wav""","191","stiff","RI","different","0","D","rare","Y","8"
"","2775","same-different-html","72","558973","0.0-3.0-69.0","","5336-4","""steaming""","""bassari.wav""","90","resolute","NRI","different","1","D","steaming","Y","9"
"","3386","same-different-html","73","565377","0.0-3.0-70.0","","5336-4","""decisive""","""bisshiribisshiri.wav""","90","crowded","RNRI","different","1","D","decisive","Y","10"
"","961","same-different-html","74","569353","0.0-3.0-71.0","","5336-4","""gaping""","""poka.wav""","90","gaping","NRI","same","0","T","gaping","Y","11"
"","3027","same-different-html","75","575399","0.0-3.0-72.0","","5336-4","""smooth""","""nopperi.wav""","191","smooth","NRI","same","1","T","smooth","Y","12"
"","4113","same-different-html","76","582528","0.0-3.0-73.0","","5336-4","""rash""","""debudebu.wav""","90","fat","RI","different","1","D","rash","Y","13"
"","3058","same-different-html","77","588599","0.0-3.0-74.0","","5336-4","""hesitant""","""pisha.wav""","191","decisive","NRI","different","0","D","hesitant","Y","14"
"","1810","same-different-html","78","593423","0.0-3.0-75.0","","5336-4","""energetic""","""mucha.wav""","191","rash","NAdj","different","0","D","energetic","Y","15"
"","1947","same-different-html","79","598383","0.0-3.0-76.0","","5336-4","""subdued""","""poka.wav""","191","gaping","NRI","different","0","D","subdued","Y","16"
"","1041","same-different-html","80","602440","0.0-3.0-77.0","","5336-4","""stiff""","""maremare.wav""","90","rare","RNAdj","different","1","D","stiff","Y","17"
"","1855","same-different-html","81","607311","0.0-3.0-78.0","","5336-4","""messy""","""jimi.wav""","191","subdued","NAdj","different","0","D","messy","Y","18"
"","1787","same-different-html","82","612118","0.0-3.0-79.0","","5336-4","""rare""","""maremare.wav""","191","rare","RNAdj","same","1","T","rare","Y","19"
"","2594","same-different-html","83","617731","0.0-3.0-80.0","","5336-4","""impossible""","""gakugaku.wav""","191","dejected","RNRI","different","0","D","impossible","Y","20"
"","3055","same-different-html","84","623802","0.0-3.0-81.0","","5336-4","""fat""","""debudebu.wav""","90","fat","RI","same","0","T","fat","Y","21"
"","991","same-different-html","85","627812","0.0-3.0-82.0","","5336-4","""rude""","""zuke.wav""","90","rude","SRI","same","0","T","rude","Y","22"
"","742","same-different-html","86","631571","0.0-3.0-83.0","","5336-4","""crowded""","""kibi.wav""","90","energetic","SRI","different","1","D","crowded","Y","23"
"","2336","same-different-html","87","636921","0.0-3.0-84.0","","5336-4","""deficient""","""murimuri.wav""","191","impossible","RNAdj","different","0","D","deficient","Y","24"
"","2151","same-different-html","88","642089","0.0-3.0-85.0","","5336-4","""deficient""","""fubifubi.wav""","191","deficient","RNAdj","same","1","T","deficient","Y","25"
"","231","same-different-html","89","645337","0.0-3.0-86.0","","5336-4","""pure""","""mukumuku.wav""","191","pure","RNAdj","same","1","T","pure","Y","26"
"","1780","same-different-html","90","650132","0.0-3.0-87.0","","5336-4","""fragile""","""gashigashi.wav""","191","sturdy","RNRI","different","0","D","fragile","Y","27"
"","845","same-different-html","91","653998","0.0-3.0-88.0","","5336-4","""impossible""","""murimuri.wav""","191","impossible","RNAdj","same","1","T","impossible","Y","28"
"","462","same-different-html","92","657478","0.0-3.0-89.0","","5336-4","""humid""","""zatsu.wav""","191","sloppy","NAdj","different","0","D","humid","Y","29"
"","673","same-different-html","93","661167","0.0-3.0-90.0","","5336-4","""sloppy""","""zatsu.wav""","191","sloppy","NAdj","same","1","T","sloppy","Y","30"
"","3251","same-different-html","94","667435","0.0-3.0-91.0","","5336-4","""gaping""","""yawa.wav""","90","fragile","NAdj","different","1","D","gaping","Y","31"
"","1121","same-different-html","95","671575","0.0-3.0-92.0","","5336-4","""fragile""","""yawa.wav""","90","fragile","NAdj","same","0","T","fragile","Y","32"
"","670","same-different-html","96","675261","0.0-3.0-93.0","","5336-4","""resolute""","""bassari.wav""","90","resolute","NRI","same","0","T","resolute","Y","33"
"","986","same-different-html","97","679262","0.0-3.0-94.0","","5336-4","""resolute""","""nopperi.wav""","90","smooth","NRI","different","1","D","resolute","Y","34"
"","688","same-different-html","98","682966","0.0-3.0-95.0","","5336-4","""smooth""","""gocha.wav""","90","messy","SRI","different","1","D","smooth","Y","35"
"","1824","same-different-html","99","687807","0.0-3.0-96.0","","5336-4","""fat""","""fubifubi.wav""","90","deficient","RNAdj","different","1","D","fat","Y","36"
"","822","same-different-html","100","691649","0.0-3.0-97.0","","5336-4","""crowded""","""bisshiribisshiri.wav""","90","crowded","RNRI","same","0","T","crowded","Y","37"
"","1438","same-different-html","101","696107","0.0-3.0-98.0","","5336-4","""messy""","""gocha.wav""","90","messy","SRI","same","0","T","messy","Y","38"
"","2313","same-different-html","102","701435","0.0-3.0-99.0","","5336-4","""whole""","""mojimoji.wav""","191","hesitant","RI","different","0","D","whole","Y","39"
"","3215","same-different-html","103","707667","0.0-3.0-100.0","","5336-4","""subdued""","""jimi.wav""","191","subdued","NAdj","same","1","T","subdued","Y","40"
"","791","same-different-html","104","711475","0.0-3.0-101.0","","5336-4","""sloppy""","""hokahoka.wav""","191","steaming","RI","different","0","D","sloppy","Y","41"
"","76","same-different-html","105","714566","0.0-3.0-102.0","","5336-4","""stiff""","""gowagowa.wav""","191","stiff","RI","same","1","T","stiff","Y","42"
"","537","same-different-html","106","718123","0.0-3.0-103.0","","5336-4","""hesitant""","""mojimoji.wav""","191","hesitant","RI","same","1","T","hesitant","Y","43"
"","790","same-different-html","107","721932","0.0-3.0-104.0","","5336-4","""dejected""","""gakugaku.wav""","90","dejected","RNRI","same","0","T","dejected","Y","44"
"","1730","same-different-html","108","726679","0.0-3.0-105.0","","5336-4","""whole""","""gosogoso.wav""","90","whole","RNRI","same","0","T","whole","Y","45"
"","2672","same-different-html","109","732371","0.0-3.0-106.0","","5336-4","""sturdy""","""zuke.wav""","90","rude","SRI","different","1","D","sturdy","Y","46"
"","378","same-different-html","110","735767","0.0-3.0-107.0","","5336-4","""sturdy""","""gashigashi.wav""","90","sturdy","RNRI","same","0","T","sturdy","Y","47"
"","2100","same-different-html","111","740885","0.0-3.0-108.0","","5336-4","""dejected""","""mushi.wav""","191","humid","SRI","different","0","D","dejected","Y","48"
"[{""page_index"":0,""viewing_time"":2502}]","2502","instructions","112","744391","0.0-3.0-109.0","","","","","","","","","","","","",""
