"view_history","rt","trial_type","trial_index","time_elapsed","internal_node_id","responses","Id","word","sound","key_press","TrueMeaning","WordType","answer","correct","TrialType","TargetMeaning","LegalTrial","trialNum"
"[{""page_index"":0,""viewing_time"":17043}]","17044","instructions","0","17044","0.0-0.0","","","","","","","","","","","","",""
"[{""page_index"":0,""viewing_time"":1274},{""page_index"":1,""viewing_time"":1841},{""page_index"":2,""viewing_time"":736},{""page_index"":3,""viewing_time"":727},{""page_index"":4,""viewing_time"":1188}]","5766","instructions","1","22811","0.0-1.0","","","","","","","","","","","","",""
"","8438","survey-multi-choice","2","31262","0.0-2.0","{""Q0"":""Yes"",""Q1"":""Yes"",""Q2"":""Yes"",""Q3"":""Yes"",""Q4"":""Yes""}","","","","","","","","","","","",""
"[{""page_index"":0,""viewing_time"":1494},{""page_index"":1,""viewing_time"":4014}]","5508","instructions","3","36772","0.0-3.0-0.0","","","","","","","","","","","","",""
"","3855","same-different-html-trial","4","46640","0.0-3.0-1.0","","0","""sushi""","""prc_sushi.wav""","32","","","","","","","",""
"[{""page_index"":0,""viewing_time"":8044}]","8045","instructions","5","55688","0.0-3.0-2.0","","","","","","","","","","","","",""
"","5862","same-different-html","6","63556","0.0-3.0-3.0","","0","""sushi""","""prc_sushi.wav""","191","","","same","1","","","0",""
"[{""page_index"":0,""viewing_time"":1701}]","1701","instructions","7","66263","0.0-3.0-4.0","","","","","","","","","","","","",""
"","2860","same-different-html","8","71135","0.0-3.0-5.0","","0","""cat""","""prc_sushi.wav""","90","","","different","1","","","0",""
"[{""page_index"":0,""viewing_time"":2404},{""page_index"":1,""viewing_time"":2216}]","4620","instructions","9","76760","0.0-3.0-6.0","","","","","","","","","","","","",""
"","2363","same-different-html-trial","10","85139","0.0-3.0-7.0","","0","""thank you""","""prc_arigato.wav""","32","","","","","","","",""
"[{""page_index"":0,""viewing_time"":2908}]","2909","instructions","11","89053","0.0-3.0-8.0","","","","","","","","","","","","",""
"","2901","same-different-html","12","93958","0.0-3.0-9.0","","0","""thank you""","""prc_arigato.wav""","191","","","same","1","","","0",""
"","2843","same-different-html","13","99812","0.0-3.0-10.0","","0","""cat""","""prc_arigato.wav""","90","","","different","1","","","0",""
"[{""page_index"":0,""viewing_time"":8641},{""page_index"":1,""viewing_time"":38832}]","47474","instructions","14","148289","0.0-3.0-11.0","","","","","","","","","","","","",""
"","498","same-different-html-trial","15","154796","0.0-3.0-12.0","","1598-3","""chubby""","""bukubuku.wav""","32","chubby","RI","","","","","","1"
"","299","same-different-html-trial","16","162118","0.0-3.0-13.0","","1598-3","""rude""","""zuke.wav""","32","rude","SRI","","","","","","2"
"","3075","same-different-html-trial","17","172206","0.0-3.0-14.0","","1598-3","""decisive""","""pishapisha.wav""","32","decisive","RNRI","","","","","","3"
"","3390","same-different-html-trial","18","182614","0.0-3.0-15.0","","1598-3","""hesitant""","""mojimoji.wav""","32","hesitant","RI","","","","","","4"
"","19097","same-different-html-trial","19","209663","0.0-3.0-16.0","","1598-3","""perfect""","""batchiribatchiri.wav""","32","perfect","RNRI","","","","","","5"
"","1156","same-different-html-trial","20","217837","0.0-3.0-17.0","","1598-3","""plump""","""potcharipotchari.wav""","32","plump","RNRI","","","","","","6"
"","1731","same-different-html-trial","21","226586","0.0-3.0-18.0","","1598-3","""comfortable""","""raku.wav""","32","comfortable","NAdj","","","","","","7"
"","782","same-different-html-trial","22","234389","0.0-3.0-19.0","","1598-3","""sullen""","""musumusu.wav""","32","sullen","RNRI","","","","","","8"
"","1310","same-different-html-trial","23","242720","0.0-3.0-20.0","","1598-3","""smooth""","""nopperi.wav""","32","smooth","NRI","","","","","","9"
"","67","same-different-html-trial","24","249801","0.0-3.0-21.0","","1598-3","""dejected""","""gaku.wav""","32","dejected","NRI","","","","","","10"
"","1166","same-different-html-trial","25","257985","0.0-3.0-22.0","","1598-3","""agitated""","""hiku.wav""","32","agitated","SRI","","","","","","11"
"","1352","same-different-html-trial","26","266354","0.0-3.0-23.0","","1598-3","""happy""","""uki.wav""","32","happy","SRI","","","","","","12"
"","2505","same-different-html-trial","27","275882","0.0-3.0-24.0","","1598-3","""careful""","""jikkuri.wav""","32","careful","NRI","","","","","","13"
"","116","same-different-html-trial","28","283016","0.0-3.0-25.0","","1598-3","""gaping""","""poka.wav""","32","gaping","NRI","","","","","","14"
"","663","same-different-html-trial","29","290702","0.0-3.0-26.0","","1598-3","""harsh""","""kokukoku.wav""","32","harsh","RNAdj","","","","","","15"
"","153","same-different-html-trial","30","297878","0.0-3.0-27.0","","1598-3","""rash""","""mucha.wav""","32","rash","NAdj","","","","","","16"
"","584","same-different-html-trial","31","305481","0.0-3.0-28.0","","1598-3","""useless""","""damedame.wav""","32","useless","RNAdj","","","","","","17"
"","650","same-different-html-trial","32","313149","0.0-3.0-29.0","","1598-3","""fragile""","""yawa.wav""","32","fragile","NAdj","","","","","","18"
"","420","same-different-html-trial","33","320586","0.0-3.0-30.0","","1598-3","""noisy""","""gayagaya.wav""","32","noisy","RI","","","","","","19"
"","230","same-different-html-trial","34","327833","0.0-3.0-31.0","","1598-3","""stupid""","""bakabaka.wav""","32","stupid","RNAdj","","","","","","20"
"","3510","same-different-html-trial","35","338360","0.0-3.0-32.0","","1598-3","""subdued""","""jimijimi.wav""","32","subdued","RNAdj","","","","","","21"
"","94","same-different-html-trial","36","345476","0.0-3.0-33.0","","1598-3","""hasty""","""seka.wav""","32","hasty","SRI","","","","","","22"
"","318","same-different-html-trial","37","352808","0.0-3.0-34.0","","1598-3","""stiff""","""gowagowa.wav""","32","stiff","RI","","","","","","23"
"","443","same-different-html-trial","38","360266","0.0-3.0-35.0","","1598-3","""disadvantaged""","""furi.wav""","32","disadvantaged","NAdj","","","","","","24"
"","51","same-different-html-trial","39","367337","0.0-3.0-36.0","","1598-3","""careful""","""jikkuri.wav""","32","careful","NRI","","","","","","25"
"","251","same-different-html-trial","40","374609","0.0-3.0-37.0","","1598-3","""rude""","""zuke.wav""","32","rude","SRI","","","","","","26"
"","126","same-different-html-trial","41","381758","0.0-3.0-38.0","","1598-3","""plump""","""potcharipotchari.wav""","32","plump","RNRI","","","","","","27"
"","4078","same-different-html-trial","42","392855","0.0-3.0-39.0","","1598-3","""perfect""","""batchiribatchiri.wav""","32","perfect","RNRI","","","","","","28"
"","385","same-different-html-trial","43","400252","0.0-3.0-40.0","","1598-3","""subdued""","""jimijimi.wav""","32","subdued","RNAdj","","","","","","29"
"","103","same-different-html-trial","44","407647","0.0-3.0-41.0","","1598-3","""chubby""","""bukubuku.wav""","32","chubby","RI","","","","","","30"
"","111","same-different-html-trial","45","414774","0.0-3.0-42.0","","1598-3","""hasty""","""seka.wav""","32","hasty","SRI","","","","","","31"
"","48","same-different-html-trial","46","421834","0.0-3.0-43.0","","1598-3","""rash""","""mucha.wav""","32","rash","NAdj","","","","","","32"
"","24","same-different-html-trial","47","428876","0.0-3.0-44.0","","1598-3","""sullen""","""musumusu.wav""","32","sullen","RNRI","","","","","","33"
"","204","same-different-html-trial","48","436099","0.0-3.0-45.0","","1598-3","""stiff""","""gowagowa.wav""","32","stiff","RI","","","","","","34"
"","338","same-different-html-trial","49","443451","0.0-3.0-46.0","","1598-3","""hesitant""","""mojimoji.wav""","32","hesitant","RI","","","","","","35"
"","120","same-different-html-trial","50","450587","0.0-3.0-47.0","","1598-3","""gaping""","""poka.wav""","32","gaping","NRI","","","","","","36"
"","40","same-different-html-trial","51","457639","0.0-3.0-48.0","","1598-3","""fragile""","""yawa.wav""","32","fragile","NAdj","","","","","","37"
"","209","same-different-html-trial","52","464864","0.0-3.0-49.0","","1598-3","""noisy""","""gayagaya.wav""","32","noisy","RI","","","","","","38"
"","25","same-different-html-trial","53","471904","0.0-3.0-50.0","","1598-3","""agitated""","""hiku.wav""","32","agitated","SRI","","","","","","39"
"","10","same-different-html-trial","54","478928","0.0-3.0-51.0","","1598-3","""comfortable""","""raku.wav""","32","comfortable","NAdj","","","","","","40"
"","316","same-different-html-trial","55","486259","0.0-3.0-52.0","","1598-3","""stupid""","""bakabaka.wav""","32","stupid","RNAdj","","","","","","41"
"","61","same-different-html-trial","56","493342","0.0-3.0-53.0","","1598-3","""harsh""","""kokukoku.wav""","32","harsh","RNAdj","","","","","","42"
"","70","same-different-html-trial","57","500427","0.0-3.0-54.0","","1598-3","""happy""","""uki.wav""","32","happy","SRI","","","","","","43"
"","29","same-different-html-trial","58","507471","0.0-3.0-55.0","","1598-3","""dejected""","""gaku.wav""","32","dejected","NRI","","","","","","44"
"","58","same-different-html-trial","59","514546","0.0-3.0-56.0","","1598-3","""smooth""","""nopperi.wav""","32","smooth","NRI","","","","","","45"
"","76","same-different-html-trial","60","521637","0.0-3.0-57.0","","1598-3","""disadvantaged""","""furi.wav""","32","disadvantaged","NAdj","","","","","","46"
"","11","same-different-html-trial","61","528665","0.0-3.0-58.0","","1598-3","""decisive""","""pishapisha.wav""","32","decisive","RNRI","","","","","","47"
"","57","same-different-html-trial","62","535732","0.0-3.0-59.0","","1598-3","""useless""","""damedame.wav""","32","useless","RNAdj","","","","","","48"
"[{""page_index"":0,""viewing_time"":8641}]","8641","instructions","63","545376","0.0-3.0-60.0","","","","","","","","","","","","",""
"","3359","same-different-html","64","550743","0.0-3.0-61.0","","1598-3","""useless""","""damedame.wav""","191","useless","RNAdj","same","1","T","useless","Y","1"
"","2124","same-different-html","65","555875","0.0-3.0-62.0","","1598-3","""perfect""","""mojimoji.wav""","90","hesitant","RI","different","1","D","perfect","Y","2"
"","2628","same-different-html","66","561513","0.0-3.0-63.0","","1598-3","""decisive""","""pishapisha.wav""","191","decisive","RNRI","same","1","T","decisive","Y","3"
"","2592","same-different-html","67","567117","0.0-3.0-64.0","","1598-3","""disadvantaged""","""nopperi.wav""","90","smooth","NRI","different","1","D","disadvantaged","Y","4"
"","1652","same-different-html","68","571780","0.0-3.0-65.0","","1598-3","""smooth""","""nopperi.wav""","191","smooth","NRI","same","1","T","smooth","Y","5"
"","368","same-different-html","69","575160","0.0-3.0-66.0","","1598-3","""hesitant""","""uki.wav""","191","happy","SRI","different","0","D","hesitant","Y","6"
"","1481","same-different-html","70","579649","0.0-3.0-67.0","","1598-3","""stiff""","""gowagowa.wav""","90","stiff","RI","same","0","T","stiff","Y","7"
"","1558","same-different-html","71","584218","0.0-3.0-68.0","","1598-3","""disadvantaged""","""furi.wav""","90","disadvantaged","NAdj","same","0","T","disadvantaged","Y","8"
"","1142","same-different-html","72","588374","0.0-3.0-69.0","","1598-3","""careful""","""jikkuri.wav""","191","careful","NRI","same","1","T","careful","Y","9"
"","1216","same-different-html","73","592598","0.0-3.0-70.0","","1598-3","""harsh""","""mucha.wav""","191","rash","NAdj","different","0","D","harsh","Y","10"
"","1219","same-different-html","74","596834","0.0-3.0-71.0","","1598-3","""smooth""","""zuke.wav""","90","rude","SRI","different","1","D","smooth","Y","11"
"","1092","same-different-html","75","600937","0.0-3.0-72.0","","1598-3","""hasty""","""seka.wav""","191","hasty","SRI","same","1","T","hasty","Y","12"
"","2305","same-different-html","76","606252","0.0-3.0-73.0","","1598-3","""rash""","""mucha.wav""","90","rash","NAdj","same","0","T","rash","Y","13"
"","6372","same-different-html","77","615933","0.0-3.0-74.0","","1598-3","""noisy""","""poka.wav""","90","gaping","NRI","different","1","D","noisy","Y","14"
"","3432","same-different-html","78","622371","0.0-3.0-75.0","","1598-3","""hesitant""","""mojimoji.wav""","191","hesitant","RI","same","1","T","hesitant","Y","15"
"","1218","same-different-html","79","626600","0.0-3.0-76.0","","1598-3","""useless""","""raku.wav""","90","comfortable","NAdj","different","1","D","useless","Y","16"
"","779","same-different-html","80","630389","0.0-3.0-77.0","","1598-3","""happy""","""uki.wav""","191","happy","SRI","same","1","T","happy","Y","17"
"","247","same-different-html","81","633650","0.0-3.0-78.0","","1598-3","""chubby""","""gaku.wav""","191","dejected","NRI","different","0","D","chubby","Y","18"
"","1287","same-different-html","82","637945","0.0-3.0-79.0","","1598-3","""happy""","""yawa.wav""","90","fragile","NAdj","different","1","D","happy","Y","19"
"","1854","same-different-html","83","642808","0.0-3.0-80.0","","1598-3","""subdued""","""batchiribatchiri.wav""","90","perfect","RNRI","different","1","D","subdued","Y","20"
"","1493","same-different-html","84","647311","0.0-3.0-81.0","","1598-3","""perfect""","""batchiribatchiri.wav""","90","perfect","RNRI","same","0","T","perfect","Y","21"
"","1114","same-different-html","85","651438","0.0-3.0-82.0","","1598-3","""gaping""","""poka.wav""","191","gaping","NRI","same","1","T","gaping","Y","22"
"","1153","same-different-html","86","655595","0.0-3.0-83.0","","1598-3","""fragile""","""hiku.wav""","90","agitated","SRI","different","1","D","fragile","Y","23"
"","788","same-different-html","87","659394","0.0-3.0-84.0","","1598-3","""sullen""","""potcharipotchari.wav""","191","plump","RNRI","different","0","D","sullen","Y","24"
"","916","same-different-html","88","663323","0.0-3.0-85.0","","1598-3","""chubby""","""bukubuku.wav""","191","chubby","RI","same","1","T","chubby","Y","25"
"","574","same-different-html","89","666909","0.0-3.0-86.0","","1598-3","""harsh""","""kokukoku.wav""","90","harsh","RNAdj","same","0","T","harsh","Y","26"
"","818","same-different-html","90","670739","0.0-3.0-87.0","","1598-3","""plump""","""potcharipotchari.wav""","191","plump","RNRI","same","1","T","plump","Y","27"
"","1121","same-different-html","91","674873","0.0-3.0-88.0","","1598-3","""hasty""","""bakabaka.wav""","90","stupid","RNAdj","different","1","D","hasty","Y","28"
"","920","same-different-html","92","678807","0.0-3.0-89.0","","1598-3","""rash""","""seka.wav""","191","hasty","SRI","different","0","D","rash","Y","29"
"","1516","same-different-html","93","683335","0.0-3.0-90.0","","1598-3","""noisy""","""gayagaya.wav""","90","noisy","RI","same","0","T","noisy","Y","30"
"","1424","same-different-html","94","687767","0.0-3.0-91.0","","1598-3","""plump""","""kokukoku.wav""","90","harsh","RNAdj","different","1","D","plump","Y","31"
"","594","same-different-html","95","691369","0.0-3.0-92.0","","1598-3","""agitated""","""jikkuri.wav""","191","careful","NRI","different","0","D","agitated","Y","32"
"","1929","same-different-html","96","696309","0.0-3.0-93.0","","1598-3","""stupid""","""furi.wav""","90","disadvantaged","NAdj","different","1","D","stupid","Y","33"
"","931","same-different-html","97","700249","0.0-3.0-94.0","","1598-3","""decisive""","""musumusu.wav""","191","sullen","RNRI","different","0","D","decisive","Y","34"
"","1163","same-different-html","98","704425","0.0-3.0-95.0","","1598-3","""comfortable""","""raku.wav""","191","comfortable","NAdj","same","1","T","comfortable","Y","35"
"","1522","same-different-html","99","708957","0.0-3.0-96.0","","1598-3","""dejected""","""gaku.wav""","90","dejected","NRI","same","0","T","dejected","Y","36"
"","1398","same-different-html","100","713361","0.0-3.0-97.0","","1598-3","""gaping""","""pishapisha.wav""","191","decisive","RNRI","different","0","D","gaping","Y","37"
"","1633","same-different-html","101","718001","0.0-3.0-98.0","","1598-3","""sullen""","""musumusu.wav""","191","sullen","RNRI","same","1","T","sullen","Y","38"
"","1355","same-different-html","102","722361","0.0-3.0-99.0","","1598-3","""stiff""","""gayagaya.wav""","90","noisy","RI","different","1","D","stiff","Y","39"
"","4022","same-different-html","103","730474","0.0-3.0-100.0","","1598-3","""fragile""","""yawa.wav""","191","fragile","NAdj","same","1","T","fragile","Y","40"
"","12952","same-different-html","104","747389","0.0-3.0-101.0","","1598-3","""agitated""","""hiku.wav""","90","agitated","SRI","same","0","T","agitated","Y","41"
"","3333","same-different-html","105","753730","0.0-3.0-102.0","","1598-3","""comfortable""","""gowagowa.wav""","191","stiff","RI","different","0","D","comfortable","Y","42"
"","3994","same-different-html","106","760734","0.0-3.0-103.0","","1598-3","""rude""","""zuke.wav""","90","rude","SRI","same","0","T","rude","Y","43"
"","4386","same-different-html","107","768134","0.0-3.0-104.0","","1598-3","""careful""","""bukubuku.wav""","191","chubby","RI","different","0","D","careful","Y","44"
"","1695","same-different-html","108","772846","0.0-3.0-105.0","","1598-3","""stupid""","""bakabaka.wav""","90","stupid","RNAdj","same","0","T","stupid","Y","45"
"","5334","same-different-html","109","781190","0.0-3.0-106.0","","1598-3","""rude""","""damedame.wav""","90","useless","RNAdj","different","1","D","rude","Y","46"
"","3838","same-different-html","110","788039","0.0-3.0-107.0","","1598-3","""dejected""","""jimijimi.wav""","90","subdued","RNAdj","different","1","D","dejected","Y","47"
"","6339","same-different-html","111","797389","0.0-3.0-108.0","","1598-3","""subdued""","""jimijimi.wav""","191","subdued","RNAdj","same","1","T","subdued","Y","48"
"[{""page_index"":0,""viewing_time"":7350}]","7351","instructions","112","805743","0.0-3.0-109.0","","","","","","","","","","","","",""
