"view_history","rt","trial_type","trial_index","time_elapsed","internal_node_id","responses","Id","word","sound","key_press","TrueMeaning","WordType","answer","correct","TrialType","TargetMeaning","LegalTrial","trialNum"
"[{""page_index"":0,""viewing_time"":8454}]","8456","instructions","0","8460","0.0-0.0","","","","","","","","","","","","",""
"[{""page_index"":0,""viewing_time"":11429},{""page_index"":1,""viewing_time"":5825},{""page_index"":2,""viewing_time"":11893},{""page_index"":3,""viewing_time"":16086},{""page_index"":4,""viewing_time"":9554}]","54788","instructions","1","63249","0.0-1.0","","","","","","","","","","","","",""
"","14114","survey-multi-choice","2","77385","0.0-2.0","{""Q0"":""Yes"",""Q1"":""Yes"",""Q2"":""Yes"",""Q3"":""Yes"",""Q4"":""Yes""}","","","","","","","","","","","",""
"[{""page_index"":0,""viewing_time"":2567},{""page_index"":1,""viewing_time"":7659}]","10228","instructions","3","87614","0.0-3.0-0.0","","","","","","","","","","","","",""
"","9701","same-different-html-trial","4","103357","0.0-3.0-1.0","","0","""sushi""","""prc_sushi.wav""","32","","","","","","","",""
"[{""page_index"":0,""viewing_time"":22022}]","22024","instructions","5","126383","0.0-3.0-2.0","","","","","","","","","","","","",""
"","34282","same-different-html","6","162686","0.0-3.0-3.0","","0","""sushi""","""prc_sushi.wav""","191","","","same","1","","","0",""
"[{""page_index"":0,""viewing_time"":3888}]","3890","instructions","7","167580","0.0-3.0-4.0","","","","","","","","","","","","",""
"","5998","same-different-html","8","175594","0.0-3.0-5.0","","0","""cat""","""prc_sushi.wav""","90","","","different","1","","","0",""
"[{""page_index"":0,""viewing_time"":4960},{""page_index"":1,""viewing_time"":1900}]","6861","instructions","9","183456","0.0-3.0-6.0","","","","","","","","","","","","",""
"","3949","same-different-html-trial","10","193431","0.0-3.0-7.0","","0","""thank you""","""prc_arigato.wav""","32","","","","","","","",""
"[{""page_index"":0,""viewing_time"":4987}]","4988","instructions","11","199420","0.0-3.0-8.0","","","","","","","","","","","","",""
"","2927","same-different-html","12","204353","0.0-3.0-9.0","","0","""thank you""","""prc_arigato.wav""","191","","","same","1","","","0",""
"","2943","same-different-html","13","210306","0.0-3.0-10.0","","0","""cat""","""prc_arigato.wav""","90","","","different","1","","","0",""
"[{""page_index"":0,""viewing_time"":2090},{""page_index"":1,""viewing_time"":46896}]","48987","instructions","14","260294","0.0-3.0-11.0","","","","","","","","","","","","",""
"","7146","same-different-html-trial","15","273452","0.0-3.0-12.0","","5107-8","""comfortable""","""raku.wav""","32","comfortable","NAdj","","","","","","1"
"","5932","same-different-html-trial","16","286401","0.0-3.0-13.0","","5107-8","""wobbly""","""yura.wav""","32","wobbly","SRI","","","","","","2"
"","2147","same-different-html-trial","17","295576","0.0-3.0-14.0","","5107-8","""agitated""","""hiku.wav""","32","agitated","SRI","","","","","","3"
"","4438","same-different-html-trial","18","307030","0.0-3.0-15.0","","5107-8","""rude""","""zukezuke.wav""","32","rude","RI","","","","","","4"
"","1130","same-different-html-trial","19","315183","0.0-3.0-16.0","","5107-8","""decisive""","""pishapisha.wav""","32","decisive","RNRI","","","","","","5"
"","389","same-different-html-trial","20","322594","0.0-3.0-17.0","","5107-8","""whole""","""gosogoso.wav""","32","whole","RNRI","","","","","","6"
"","353","same-different-html-trial","21","329965","0.0-3.0-18.0","","5107-8","""humid""","""mushimushi.wav""","32","humid","RI","","","","","","7"
"","201","same-different-html-trial","22","337185","0.0-3.0-19.0","","5107-8","""sloppy""","""zatsuzatsu.wav""","32","sloppy","RNAdj","","","","","","8"
"","470","same-different-html-trial","23","344673","0.0-3.0-20.0","","5107-8","""steaming""","""hokahoka.wav""","32","steaming","RI","","","","","","9"
"","326","same-different-html-trial","24","352019","0.0-3.0-21.0","","5107-8","""fragile""","""yawayawa.wav""","32","fragile","RNAdj","","","","","","10"
"","450","same-different-html-trial","25","359491","0.0-3.0-22.0","","5107-8","""deficient""","""fubifubi.wav""","32","deficient","RNAdj","","","","","","11"
"","357","same-different-html-trial","26","366871","0.0-3.0-23.0","","5107-8","""rash""","""muchamucha.wav""","32","rash","RNAdj","","","","","","12"
"","2541","same-different-html-trial","27","376435","0.0-3.0-24.0","","5107-8","""disadvantaged""","""furi.wav""","32","disadvantaged","NAdj","","","","","","13"
"","348","same-different-html-trial","28","383804","0.0-3.0-25.0","","5107-8","""crowded""","""bisshiri.wav""","32","crowded","NRI","","","","","","14"
"","274","same-different-html-trial","29","391099","0.0-3.0-26.0","","5107-8","""smug""","""kiza.wav""","32","smug","NAdj","","","","","","15"
"","323","same-different-html-trial","30","398445","0.0-3.0-27.0","","5107-8","""plump""","""potchari.wav""","32","plump","NRI","","","","","","16"
"","943","same-different-html-trial","31","406409","0.0-3.0-28.0","","5107-8","""sturdy""","""gashigashi.wav""","32","sturdy","RNRI","","","","","","17"
"","490","same-different-html-trial","32","413915","0.0-3.0-29.0","","5107-8","""hasty""","""seka.wav""","32","hasty","SRI","","","","","","18"
"","1380","same-different-html-trial","33","422310","0.0-3.0-30.0","","5107-8","""resolute""","""bassari.wav""","32","resolute","NRI","","","","","","19"
"","259","same-different-html-trial","34","429584","0.0-3.0-31.0","","5107-8","""happy""","""uki.wav""","32","happy","SRI","","","","","","20"
"","266","same-different-html-trial","35","436873","0.0-3.0-32.0","","5107-8","""rare""","""mare.wav""","32","rare","NAdj","","","","","","21"
"","253","same-different-html-trial","36","444153","0.0-3.0-33.0","","5107-8","""perfect""","""batchiribatchiri.wav""","32","perfect","RNRI","","","","","","22"
"","273","same-different-html-trial","37","451451","0.0-3.0-34.0","","5107-8","""whispering""","""hisohiso.wav""","32","whispering","RI","","","","","","23"
"","341","same-different-html-trial","38","458808","0.0-3.0-35.0","","5107-8","""offended""","""kachin.wav""","32","offended","NRI","","","","","","24"
"","347","same-different-html-trial","39","466173","0.0-3.0-36.0","","5107-8","""decisive""","""pishapisha.wav""","32","decisive","RNRI","","","","","","25"
"","308","same-different-html-trial","40","473498","0.0-3.0-37.0","","5107-8","""agitated""","""hiku.wav""","32","agitated","SRI","","","","","","26"
"","1044","same-different-html-trial","41","481565","0.0-3.0-38.0","","5107-8","""offended""","""kachin.wav""","32","offended","NRI","","","","","","27"
"","388","same-different-html-trial","42","488969","0.0-3.0-39.0","","5107-8","""wobbly""","""yura.wav""","32","wobbly","SRI","","","","","","28"
"","383","same-different-html-trial","43","496369","0.0-3.0-40.0","","5107-8","""rare""","""mare.wav""","32","rare","NAdj","","","","","","29"
"","4918","same-different-html-trial","44","508305","0.0-3.0-41.0","","5107-8","""humid""","""mushimushi.wav""","32","humid","RI","","","","","","30"
"","1978","same-different-html-trial","45","517303","0.0-3.0-42.0","","5107-8","""perfect""","""batchiribatchiri.wav""","32","perfect","RNRI","","","","","","31"
"","256","same-different-html-trial","46","524577","0.0-3.0-43.0","","5107-8","""hasty""","""seka.wav""","32","hasty","SRI","","","","","","32"
"","1246","same-different-html-trial","47","532839","0.0-3.0-44.0","","5107-8","""steaming""","""hokahoka.wav""","32","steaming","RI","","","","","","33"
"","237","same-different-html-trial","48","540101","0.0-3.0-45.0","","5107-8","""disadvantaged""","""furi.wav""","32","disadvantaged","NAdj","","","","","","34"
"","369","same-different-html-trial","49","547487","0.0-3.0-46.0","","5107-8","""sturdy""","""gashigashi.wav""","32","sturdy","RNRI","","","","","","35"
"","124","same-different-html-trial","50","554630","0.0-3.0-47.0","","5107-8","""whispering""","""hisohiso.wav""","32","whispering","RI","","","","","","36"
"","1275","same-different-html-trial","51","562924","0.0-3.0-48.0","","5107-8","""comfortable""","""raku.wav""","32","comfortable","NAdj","","","","","","37"
"","464","same-different-html-trial","52","570406","0.0-3.0-49.0","","5107-8","""plump""","""potchari.wav""","32","plump","NRI","","","","","","38"
"","378","same-different-html-trial","53","577803","0.0-3.0-50.0","","5107-8","""crowded""","""bisshiri.wav""","32","crowded","NRI","","","","","","39"
"","253","same-different-html-trial","54","585090","0.0-3.0-51.0","","5107-8","""smug""","""kiza.wav""","32","smug","NAdj","","","","","","40"
"","159","same-different-html-trial","55","592265","0.0-3.0-52.0","","5107-8","""sloppy""","""zatsuzatsu.wav""","32","sloppy","RNAdj","","","","","","41"
"","182","same-different-html-trial","56","599471","0.0-3.0-53.0","","5107-8","""whole""","""gosogoso.wav""","32","whole","RNRI","","","","","","42"
"","682","same-different-html-trial","57","607169","0.0-3.0-54.0","","5107-8","""rude""","""zukezuke.wav""","32","rude","RI","","","","","","43"
"","429","same-different-html-trial","58","614620","0.0-3.0-55.0","","5107-8","""resolute""","""bassari.wav""","32","resolute","NRI","","","","","","44"
"","745","same-different-html-trial","59","622382","0.0-3.0-56.0","","5107-8","""deficient""","""fubifubi.wav""","32","deficient","RNAdj","","","","","","45"
"","320","same-different-html-trial","60","629719","0.0-3.0-57.0","","5107-8","""rash""","""muchamucha.wav""","32","rash","RNAdj","","","","","","46"
"","327","same-different-html-trial","61","637065","0.0-3.0-58.0","","5107-8","""happy""","""uki.wav""","32","happy","SRI","","","","","","47"
"","735","same-different-html-trial","62","644819","0.0-3.0-59.0","","5107-8","""fragile""","""yawayawa.wav""","32","fragile","RNAdj","","","","","","48"
"[{""page_index"":0,""viewing_time"":18462}]","18463","instructions","63","664283","0.0-3.0-60.0","","","","","","","","","","","","",""
"","3448","same-different-html","64","669750","0.0-3.0-61.0","","5107-8","""wobbly""","""yura.wav""","191","wobbly","SRI","same","1","T","wobbly","Y","1"
"","2964","same-different-html","65","675732","0.0-3.0-62.0","","5107-8","""happy""","""yawayawa.wav""","191","fragile","RNAdj","different","0","D","happy","Y","2"
"","2777","same-different-html","66","681522","0.0-3.0-63.0","","5107-8","""plump""","""potchari.wav""","90","plump","NRI","same","0","T","plump","Y","3"
"","2779","same-different-html","67","687314","0.0-3.0-64.0","","5107-8","""offended""","""kachin.wav""","90","offended","NRI","same","0","T","offended","Y","4"
"","2709","same-different-html","68","693040","0.0-3.0-65.0","","5107-8","""fragile""","""yawayawa.wav""","191","fragile","RNAdj","same","1","T","fragile","Y","5"
"","1686","same-different-html","69","697738","0.0-3.0-66.0","","5107-8","""rare""","""mare.wav""","90","rare","NAdj","same","0","T","rare","Y","6"
"","1887","same-different-html","70","702637","0.0-3.0-67.0","","5107-8","""deficient""","""potchari.wav""","90","plump","NRI","different","1","D","deficient","Y","7"
"","1529","same-different-html","71","707175","0.0-3.0-68.0","","5107-8","""rash""","""kiza.wav""","90","smug","NAdj","different","1","D","rash","Y","8"
"","2092","same-different-html","72","712279","0.0-3.0-69.0","","5107-8","""smug""","""kiza.wav""","191","smug","NAdj","same","1","T","smug","Y","9"
"","2182","same-different-html","73","717471","0.0-3.0-70.0","","5107-8","""rude""","""hokahoka.wav""","90","steaming","RI","different","1","D","rude","Y","10"
"","2529","same-different-html","74","723010","0.0-3.0-71.0","","5107-8","""fragile""","""zukezuke.wav""","90","rude","RI","different","1","D","fragile","Y","11"
"","1773","same-different-html","75","727797","0.0-3.0-72.0","","5107-8","""crowded""","""mushimushi.wav""","90","humid","RI","different","1","D","crowded","Y","12"
"","1697","same-different-html","76","732503","0.0-3.0-73.0","","5107-8","""resolute""","""bassari.wav""","191","resolute","NRI","same","1","T","resolute","Y","13"
"","2613","same-different-html","77","738125","0.0-3.0-74.0","","5107-8","""wobbly""","""bassari.wav""","90","resolute","NRI","different","1","D","wobbly","Y","14"
"","2325","same-different-html","78","743461","0.0-3.0-75.0","","5107-8","""crowded""","""bisshiri.wav""","191","crowded","NRI","same","1","T","crowded","Y","15"
"","1863","same-different-html","79","748346","0.0-3.0-76.0","","5107-8","""sturdy""","""hiku.wav""","191","agitated","SRI","different","0","D","sturdy","Y","16"
"","1896","same-different-html","80","753252","0.0-3.0-77.0","","5107-8","""disadvantaged""","""bisshiri.wav""","90","crowded","NRI","different","1","D","disadvantaged","Y","17"
"","1838","same-different-html","81","758105","0.0-3.0-78.0","","5107-8","""plump""","""uki.wav""","90","happy","SRI","different","1","D","plump","Y","18"
"","1953","same-different-html","82","763067","0.0-3.0-79.0","","5107-8","""comfortable""","""mare.wav""","90","rare","NAdj","different","1","D","comfortable","Y","19"
"","1888","same-different-html","83","767964","0.0-3.0-80.0","","5107-8","""comfortable""","""raku.wav""","191","comfortable","NAdj","same","1","T","comfortable","Y","20"
"","3381","same-different-html","84","774354","0.0-3.0-81.0","","5107-8","""hasty""","""yura.wav""","191","wobbly","SRI","different","0","D","hasty","Y","21"
"","1563","same-different-html","85","778929","0.0-3.0-82.0","","5107-8","""disadvantaged""","""furi.wav""","191","disadvantaged","NAdj","same","1","T","disadvantaged","Y","22"
"","1562","same-different-html","86","783498","0.0-3.0-83.0","","5107-8","""decisive""","""seka.wav""","90","hasty","SRI","different","1","D","decisive","Y","23"
"","1723","same-different-html","87","788233","0.0-3.0-84.0","","5107-8","""happy""","""uki.wav""","90","happy","SRI","same","0","T","happy","Y","24"
"","1773","same-different-html","88","793015","0.0-3.0-85.0","","5107-8","""agitated""","""zatsuzatsu.wav""","191","sloppy","RNAdj","different","0","D","agitated","Y","25"
"","924","same-different-html","89","796952","0.0-3.0-86.0","","5107-8","""whole""","""gosogoso.wav""","191","whole","RNRI","same","1","T","whole","Y","26"
"","2222","same-different-html","90","802184","0.0-3.0-87.0","","5107-8","""whispering""","""hisohiso.wav""","191","whispering","RI","same","1","T","whispering","Y","27"
"","1809","same-different-html","91","807002","0.0-3.0-88.0","","5107-8","""decisive""","""pishapisha.wav""","90","decisive","RNRI","same","0","T","decisive","Y","28"
"","1322","same-different-html","92","811337","0.0-3.0-89.0","","5107-8","""whole""","""pishapisha.wav""","90","decisive","RNRI","different","1","D","whole","Y","29"
"","2071","same-different-html","93","816421","0.0-3.0-90.0","","5107-8","""rare""","""gashigashi.wav""","191","sturdy","RNRI","different","0","D","rare","Y","30"
"","1948","same-different-html","94","821378","0.0-3.0-91.0","","5107-8","""smug""","""raku.wav""","191","comfortable","NAdj","different","0","D","smug","Y","31"
"","1501","same-different-html","95","825890","0.0-3.0-92.0","","5107-8","""whispering""","""muchamucha.wav""","90","rash","RNAdj","different","1","D","whispering","Y","32"
"","1848","same-different-html","96","830761","0.0-3.0-93.0","","5107-8","""sloppy""","""zatsuzatsu.wav""","191","sloppy","RNAdj","same","1","T","sloppy","Y","33"
"","1907","same-different-html","97","835686","0.0-3.0-94.0","","5107-8","""offended""","""furi.wav""","191","disadvantaged","NAdj","different","0","D","offended","Y","34"
"","1689","same-different-html","98","840386","0.0-3.0-95.0","","5107-8","""humid""","""mushimushi.wav""","90","humid","RI","same","0","T","humid","Y","35"
"","1506","same-different-html","99","844905","0.0-3.0-96.0","","5107-8","""deficient""","""fubifubi.wav""","191","deficient","RNAdj","same","1","T","deficient","Y","36"
"","1907","same-different-html","100","849824","0.0-3.0-97.0","","5107-8","""resolute""","""fubifubi.wav""","90","deficient","RNAdj","different","1","D","resolute","Y","37"
"","2150","same-different-html","101","854984","0.0-3.0-98.0","","5107-8","""steaming""","""batchiribatchiri.wav""","191","perfect","RNRI","different","0","D","steaming","Y","38"
"","1634","same-different-html","102","859627","0.0-3.0-99.0","","5107-8","""perfect""","""batchiribatchiri.wav""","90","perfect","RNRI","same","0","T","perfect","Y","39"
"","1779","same-different-html","103","864413","0.0-3.0-100.0","","5107-8","""sturdy""","""gashigashi.wav""","90","sturdy","RNRI","same","0","T","sturdy","Y","40"
"","1628","same-different-html","104","869049","0.0-3.0-101.0","","5107-8","""agitated""","""hiku.wav""","191","agitated","SRI","same","1","T","agitated","Y","41"
"","1708","same-different-html","105","873770","0.0-3.0-102.0","","5107-8","""humid""","""gosogoso.wav""","90","whole","RNRI","different","1","D","humid","Y","42"
"","2043","same-different-html","106","878824","0.0-3.0-103.0","","5107-8","""rude""","""zukezuke.wav""","191","rude","RI","same","1","T","rude","Y","43"
"","1744","same-different-html","107","883583","0.0-3.0-104.0","","5107-8","""rash""","""muchamucha.wav""","90","rash","RNAdj","same","0","T","rash","Y","44"
"","2952","same-different-html","108","889544","0.0-3.0-105.0","","5107-8","""hasty""","""seka.wav""","90","hasty","SRI","same","0","T","hasty","Y","45"
"","2231","same-different-html","109","894787","0.0-3.0-106.0","","5107-8","""sloppy""","""kachin.wav""","90","offended","NRI","different","1","D","sloppy","Y","46"
"","1819","same-different-html","110","899619","0.0-3.0-107.0","","5107-8","""perfect""","""hisohiso.wav""","191","whispering","RI","different","0","D","perfect","Y","47"
"","2069","same-different-html","111","904705","0.0-3.0-108.0","","5107-8","""steaming""","""hokahoka.wav""","191","steaming","RI","same","1","T","steaming","Y","48"
"[{""page_index"":0,""viewing_time"":21223}]","21224","instructions","112","926931","0.0-3.0-109.0","","","","","","","","","","","","",""
