"view_history","rt","trial_type","trial_index","time_elapsed","internal_node_id","responses","Id","word","sound","key_press","TrueMeaning","WordType","answer","correct","TrialType","TargetMeaning","LegalTrial","trialNum"
"[{""page_index"":0,""viewing_time"":4494}]","4495","instructions","0","4497","0.0-0.0","","","","","","","","","","","","",""
"[{""page_index"":0,""viewing_time"":3486},{""page_index"":1,""viewing_time"":3376},{""page_index"":2,""viewing_time"":3913},{""page_index"":3,""viewing_time"":14728},{""page_index"":4,""viewing_time"":150056}]","175559","instructions","1","180056","0.0-1.0","","","","","","","","","","","","",""
"","26157","survey-multi-choice","2","206217","0.0-2.0","{""Q0"":""Yes"",""Q1"":""Yes"",""Q2"":""Yes"",""Q3"":""Yes"",""Q4"":""Yes""}","","","","","","","","","","","",""
"[{""page_index"":0,""viewing_time"":2967},{""page_index"":1,""viewing_time"":5064}]","8031","instructions","3","214248","0.0-3.0-0.0","","","","","","","","","","","","",""
"","16306","same-different-html-trial","4","236569","0.0-3.0-1.0","","0","""sushi""","""prc_sushi.wav""","32","","","","","","","",""
"[{""page_index"":0,""viewing_time"":10703}]","10703","instructions","5","248273","0.0-3.0-2.0","","","","","","","","","","","","",""
"","16067","same-different-html","6","266345","0.0-3.0-3.0","","0","""sushi""","""prc_sushi.wav""","191","","","same","1","","","0",""
"[{""page_index"":0,""viewing_time"":10334}]","10334","instructions","7","277683","0.0-3.0-4.0","","","","","","","","","","","","",""
"","3539","same-different-html","8","283227","0.0-3.0-5.0","","0","""cat""","""prc_sushi.wav""","90","","","different","1","","","0",""
"[{""page_index"":0,""viewing_time"":4854},{""page_index"":1,""viewing_time"":4312}]","9166","instructions","9","293393","0.0-3.0-6.0","","","","","","","","","","","","",""
"","2945","same-different-html-trial","10","302345","0.0-3.0-7.0","","0","""thank you""","""prc_arigato.wav""","32","","","","","","","",""
"[{""page_index"":0,""viewing_time"":5678}]","5678","instructions","11","309025","0.0-3.0-8.0","","","","","","","","","","","","",""
"","4004","same-different-html","12","315033","0.0-3.0-9.0","","0","""thank you""","""prc_arigato.wav""","191","","","same","1","","","0",""
"","3108","same-different-html","13","321145","0.0-3.0-10.0","","0","""cat""","""prc_arigato.wav""","90","","","different","1","","","0",""
"[{""page_index"":0,""viewing_time"":1655},{""page_index"":1,""viewing_time"":26696}]","28351","instructions","14","350497","0.0-3.0-11.0","","","","","","","","","","","","",""
"","3462","same-different-html-trial","15","359969","0.0-3.0-12.0","","3478-4","""vulgar""","""zokuzoku.wav""","32","vulgar","RNAdj","","","","","","1"
"","5104","same-different-html-trial","16","372081","0.0-3.0-13.0","","3478-4","""sturdy""","""gashigashi.wav""","32","sturdy","RNRI","","","","","","2"
"","1568","same-different-html-trial","17","380656","0.0-3.0-14.0","","3478-4","""shivering""","""buru.wav""","32","shivering","SRI","","","","","","3"
"","1199","same-different-html-trial","18","388868","0.0-3.0-15.0","","3478-4","""rude""","""zukezuke.wav""","32","rude","RI","","","","","","4"
"","2008","same-different-html-trial","19","397881","0.0-3.0-16.0","","3478-4","""clear""","""kukkiri.wav""","32","clear","NRI","","","","","","5"
"","1246","same-different-html-trial","20","406138","0.0-3.0-17.0","","3478-4","""useless""","""dame.wav""","32","useless","NAdj","","","","","","6"
"","1334","same-different-html-trial","21","414481","0.0-3.0-18.0","","3478-4","""agitated""","""hiku.wav""","32","agitated","SRI","","","","","","7"
"","7174","same-different-html-trial","22","428665","0.0-3.0-19.0","","3478-4","""gaping""","""pokapoka.wav""","32","gaping","RNRI","","","","","","8"
"","1832","same-different-html-trial","23","437506","0.0-3.0-20.0","","3478-4","""suspenseful""","""harahara.wav""","32","suspenseful","RI","","","","","","9"
"","840","same-different-html-trial","24","445354","0.0-3.0-21.0","","3478-4","""gaudy""","""kabi.wav""","32","gaudy","NAdj","","","","","","10"
"","1784","same-different-html-trial","25","454146","0.0-3.0-22.0","","3478-4","""excessive""","""kadokado.wav""","32","excessive","RNAdj","","","","","","11"
"","1494","same-different-html-trial","26","462649","0.0-3.0-23.0","","3478-4","""deficient""","""fubifubi.wav""","32","deficient","RNAdj","","","","","","12"
"","2696","same-different-html-trial","27","472355","0.0-3.0-24.0","","3478-4","""careful""","""jikkuri.wav""","32","careful","NRI","","","","","","13"
"","1431","same-different-html-trial","28","480794","0.0-3.0-25.0","","3478-4","""hesitant""","""mojimoji.wav""","32","hesitant","RI","","","","","","14"
"","1461","same-different-html-trial","29","489264","0.0-3.0-26.0","","3478-4","""fast asleep""","""gussurigussuri.wav""","32","fast asleep","RNRI","","","","","","15"
"","623","same-different-html-trial","30","496898","0.0-3.0-27.0","","3478-4","""subdued""","""jimi.wav""","32","subdued","NAdj","","","","","","16"
"","2659","same-different-html-trial","31","508161","0.0-3.0-28.0","","3478-4","""happy""","""uki.wav""","32","happy","SRI","","","","","","17"
"","1488","same-different-html-trial","32","516657","0.0-3.0-29.0","","3478-4","""comfortable""","""rakuraku.wav""","32","comfortable","RNAdj","","","","","","18"
"","1527","same-different-html-trial","33","525192","0.0-3.0-30.0","","3478-4","""wobbly""","""yura.wav""","32","wobbly","SRI","","","","","","19"
"","1303","same-different-html-trial","34","533505","0.0-3.0-31.0","","3478-4","""noisy""","""gayagaya.wav""","32","noisy","RI","","","","","","20"
"","737","same-different-html-trial","35","541250","0.0-3.0-32.0","","3478-4","""perfect""","""batchiri.wav""","32","perfect","NRI","","","","","","21"
"","767","same-different-html-trial","36","549026","0.0-3.0-33.0","","3478-4","""rash""","""mucha.wav""","32","rash","NAdj","","","","","","22"
"","813","same-different-html-trial","37","556851","0.0-3.0-34.0","","3478-4","""whole""","""goso.wav""","32","whole","NRI","","","","","","23"
"","688","same-different-html-trial","38","564546","0.0-3.0-35.0","","3478-4","""crowded""","""bisshiribisshiri.wav""","32","crowded","RNRI","","","","","","24"
"","1294","same-different-html-trial","39","572849","0.0-3.0-36.0","","3478-4","""sturdy""","""gashigashi.wav""","32","sturdy","RNRI","","","","","","25"
"","404","same-different-html-trial","40","580265","0.0-3.0-37.0","","3478-4","""shivering""","""buru.wav""","32","shivering","SRI","","","","","","26"
"","655","same-different-html-trial","41","587929","0.0-3.0-38.0","","3478-4","""rude""","""zukezuke.wav""","32","rude","RI","","","","","","27"
"","421","same-different-html-trial","42","595361","0.0-3.0-39.0","","3478-4","""useless""","""dame.wav""","32","useless","NAdj","","","","","","28"
"","1025","same-different-html-trial","43","603393","0.0-3.0-40.0","","3478-4","""deficient""","""fubifubi.wav""","32","deficient","RNAdj","","","","","","29"
"","625","same-different-html-trial","44","611027","0.0-3.0-41.0","","3478-4","""clear""","""kukkiri.wav""","32","clear","NRI","","","","","","30"
"","1317","same-different-html-trial","45","619353","0.0-3.0-42.0","","3478-4","""vulgar""","""zokuzoku.wav""","32","vulgar","RNAdj","","","","","","31"
"","471","same-different-html-trial","46","626832","0.0-3.0-43.0","","3478-4","""happy""","""uki.wav""","32","happy","SRI","","","","","","32"
"","2993","same-different-html-trial","47","636834","0.0-3.0-44.0","","3478-4","""fast asleep""","""gussurigussuri.wav""","32","fast asleep","RNRI","","","","","","33"
"","1213","same-different-html-trial","48","645057","0.0-3.0-45.0","","3478-4","""subdued""","""jimi.wav""","32","subdued","NAdj","","","","","","34"
"","349","same-different-html-trial","49","652417","0.0-3.0-46.0","","3478-4","""perfect""","""batchiri.wav""","32","perfect","NRI","","","","","","35"
"","242","same-different-html-trial","50","659666","0.0-3.0-47.0","","3478-4","""agitated""","""hiku.wav""","32","agitated","SRI","","","","","","36"
"","1303","same-different-html-trial","51","667978","0.0-3.0-48.0","","3478-4","""comfortable""","""rakuraku.wav""","32","comfortable","RNAdj","","","","","","37"
"","6808","same-different-html-trial","52","681792","0.0-3.0-49.0","","3478-4","""gaping""","""pokapoka.wav""","32","gaping","RNRI","","","","","","38"
"","904","same-different-html-trial","53","689705","0.0-3.0-50.0","","3478-4","""gaudy""","""kabi.wav""","32","gaudy","NAdj","","","","","","39"
"","616","same-different-html-trial","54","697338","0.0-3.0-51.0","","3478-4","""whole""","""goso.wav""","32","whole","NRI","","","","","","40"
"","1372","same-different-html-trial","55","705721","0.0-3.0-52.0","","3478-4","""excessive""","""kadokado.wav""","32","excessive","RNAdj","","","","","","41"
"","260","same-different-html-trial","56","712993","0.0-3.0-53.0","","3478-4","""noisy""","""gayagaya.wav""","32","noisy","RI","","","","","","42"
"","456","same-different-html-trial","57","720457","0.0-3.0-54.0","","3478-4","""careful""","""jikkuri.wav""","32","careful","NRI","","","","","","43"
"","613","same-different-html-trial","58","728080","0.0-3.0-55.0","","3478-4","""wobbly""","""yura.wav""","32","wobbly","SRI","","","","","","44"
"","344","same-different-html-trial","59","735433","0.0-3.0-56.0","","3478-4","""suspenseful""","""harahara.wav""","32","suspenseful","RI","","","","","","45"
"","648","same-different-html-trial","60","743088","0.0-3.0-57.0","","3478-4","""rash""","""mucha.wav""","32","rash","NAdj","","","","","","46"
"","311","same-different-html-trial","61","750410","0.0-3.0-58.0","","3478-4","""crowded""","""bisshiribisshiri.wav""","32","crowded","RNRI","","","","","","47"
"","1290","same-different-html-trial","62","758707","0.0-3.0-59.0","","3478-4","""hesitant""","""mojimoji.wav""","32","hesitant","RI","","","","","","48"
"[{""page_index"":0,""viewing_time"":8596}]","8597","instructions","63","768305","0.0-3.0-60.0","","","","","","","","","","","","",""
"","4532","same-different-html","64","774841","0.0-3.0-61.0","","3478-4","""sturdy""","""gashigashi.wav""","191","sturdy","RNRI","same","1","T","sturdy","Y","1"
"","5190","same-different-html","65","783034","0.0-3.0-62.0","","3478-4","""noisy""","""kadokado.wav""","90","excessive","RNAdj","different","1","D","noisy","Y","2"
"","2931","same-different-html","66","788969","0.0-3.0-63.0","","3478-4","""agitated""","""kukkiri.wav""","191","clear","NRI","different","0","D","agitated","Y","3"
"","1795","same-different-html","67","793769","0.0-3.0-64.0","","3478-4","""comfortable""","""mojimoji.wav""","191","hesitant","RI","different","0","D","comfortable","Y","4"
"","2666","same-different-html","68","799441","0.0-3.0-65.0","","3478-4","""sturdy""","""dame.wav""","90","useless","NAdj","different","1","D","sturdy","Y","5"
"","2874","same-different-html","69","805322","0.0-3.0-66.0","","3478-4","""subdued""","""uki.wav""","191","happy","SRI","different","0","D","subdued","Y","6"
"","3315","same-different-html","70","811641","0.0-3.0-67.0","","3478-4","""subdued""","""jimi.wav""","191","subdued","NAdj","same","1","T","subdued","Y","7"
"","1547","same-different-html","71","816195","0.0-3.0-68.0","","3478-4","""vulgar""","""jimi.wav""","90","subdued","NAdj","different","1","D","vulgar","Y","8"
"","2801","same-different-html","72","822001","0.0-3.0-69.0","","3478-4","""whole""","""goso.wav""","191","whole","NRI","same","1","T","whole","Y","9"
"","3085","same-different-html","73","828089","0.0-3.0-70.0","","3478-4","""vulgar""","""zokuzoku.wav""","90","vulgar","RNAdj","same","0","T","vulgar","Y","10"
"","2803","same-different-html","74","833897","0.0-3.0-71.0","","3478-4","""agitated""","""hiku.wav""","191","agitated","SRI","same","1","T","agitated","Y","11"
"","2965","same-different-html","75","839866","0.0-3.0-72.0","","3478-4","""gaudy""","""fubifubi.wav""","191","deficient","RNAdj","different","0","D","gaudy","Y","12"
"","3194","same-different-html","76","846066","0.0-3.0-73.0","","3478-4","""comfortable""","""rakuraku.wav""","191","comfortable","RNAdj","same","1","T","comfortable","Y","13"
"","2836","same-different-html","77","851907","0.0-3.0-74.0","","3478-4","""whole""","""batchiri.wav""","90","perfect","NRI","different","1","D","whole","Y","14"
"","3626","same-different-html","78","858538","0.0-3.0-75.0","","3478-4","""noisy""","""gayagaya.wav""","191","noisy","RI","same","1","T","noisy","Y","15"
"","5157","same-different-html","79","866698","0.0-3.0-76.0","","3478-4","""fast asleep""","""gussurigussuri.wav""","90","fast asleep","RNRI","same","0","T","fast asleep","Y","16"
"","2874","same-different-html","80","872578","0.0-3.0-77.0","","3478-4","""suspenseful""","""pokapoka.wav""","90","gaping","RNRI","different","1","D","suspenseful","Y","17"
"","2964","same-different-html","81","878546","0.0-3.0-78.0","","3478-4","""rash""","""rakuraku.wav""","90","comfortable","RNAdj","different","1","D","rash","Y","18"
"","2921","same-different-html","82","884474","0.0-3.0-79.0","","3478-4","""wobbly""","""yura.wav""","191","wobbly","SRI","same","1","T","wobbly","Y","19"
"","5050","same-different-html","83","892530","0.0-3.0-80.0","","3478-4","""hesitant""","""yura.wav""","90","wobbly","SRI","different","1","D","hesitant","Y","20"
"","2821","same-different-html","84","898354","0.0-3.0-81.0","","3478-4","""fast asleep""","""goso.wav""","90","whole","NRI","different","1","D","fast asleep","Y","21"
"","3066","same-different-html","85","904427","0.0-3.0-82.0","","3478-4","""careful""","""jikkuri.wav""","191","careful","NRI","same","1","T","careful","Y","22"
"","2907","same-different-html","86","910338","0.0-3.0-83.0","","3478-4","""useless""","""zukezuke.wav""","191","rude","RI","different","0","D","useless","Y","23"
"","5019","same-different-html","87","918362","0.0-3.0-84.0","","3478-4","""gaping""","""mucha.wav""","191","rash","NAdj","different","0","D","gaping","Y","24"
"","2857","same-different-html","88","924226","0.0-3.0-85.0","","3478-4","""deficient""","""fubifubi.wav""","90","deficient","RNAdj","same","0","T","deficient","Y","25"
"","3772","same-different-html","89","931003","0.0-3.0-86.0","","3478-4","""deficient""","""buru.wav""","191","shivering","SRI","different","0","D","deficient","Y","26"
"","3020","same-different-html","90","937026","0.0-3.0-87.0","","3478-4","""hesitant""","""mojimoji.wav""","90","hesitant","RI","same","0","T","hesitant","Y","27"
"","4123","same-different-html","91","944154","0.0-3.0-88.0","","3478-4","""clear""","""kukkiri.wav""","191","clear","NRI","same","1","T","clear","Y","28"
"","2934","same-different-html","92","950090","0.0-3.0-89.0","","3478-4","""crowded""","""bisshiribisshiri.wav""","191","crowded","RNRI","same","1","T","crowded","Y","29"
"","3485","same-different-html","93","956578","0.0-3.0-90.0","","3478-4","""shivering""","""gayagaya.wav""","90","noisy","RI","different","1","D","shivering","Y","30"
"","2809","same-different-html","94","962393","0.0-3.0-91.0","","3478-4","""useless""","""dame.wav""","191","useless","NAdj","same","1","T","useless","Y","31"
"","3306","same-different-html","95","968705","0.0-3.0-92.0","","3478-4","""clear""","""jikkuri.wav""","191","careful","NRI","different","0","D","clear","Y","32"
"","2883","same-different-html","96","974593","0.0-3.0-93.0","","3478-4","""wobbly""","""bisshiribisshiri.wav""","90","crowded","RNRI","different","1","D","wobbly","Y","33"
"","2869","same-different-html","97","980466","0.0-3.0-94.0","","3478-4","""gaudy""","""kabi.wav""","90","gaudy","NAdj","same","0","T","gaudy","Y","34"
"","2835","same-different-html","98","986306","0.0-3.0-95.0","","3478-4","""suspenseful""","""harahara.wav""","191","suspenseful","RI","same","1","T","suspenseful","Y","35"
"","3235","same-different-html","99","992546","0.0-3.0-96.0","","3478-4","""happy""","""uki.wav""","191","happy","SRI","same","1","T","happy","Y","36"
"","11379","same-different-html","100","1006930","0.0-3.0-97.0","","3478-4","""excessive""","""kadokado.wav""","191","excessive","RNAdj","same","1","T","excessive","Y","37"
"","2850","same-different-html","101","1012786","0.0-3.0-98.0","","3478-4","""excessive""","""gashigashi.wav""","191","sturdy","RNRI","different","0","D","excessive","Y","38"
"","3524","same-different-html","102","1019314","0.0-3.0-99.0","","3478-4","""rash""","""mucha.wav""","90","rash","NAdj","same","0","T","rash","Y","39"
"","2732","same-different-html","103","1025050","0.0-3.0-100.0","","3478-4","""perfect""","""gussurigussuri.wav""","90","fast asleep","RNRI","different","1","D","perfect","Y","40"
"","2738","same-different-html","104","1030794","0.0-3.0-101.0","","3478-4","""happy""","""kabi.wav""","191","gaudy","NAdj","different","0","D","happy","Y","41"
"","3090","same-different-html","105","1036890","0.0-3.0-102.0","","3478-4","""perfect""","""batchiri.wav""","191","perfect","NRI","same","1","T","perfect","Y","42"
"","3267","same-different-html","106","1043161","0.0-3.0-103.0","","3478-4","""shivering""","""buru.wav""","191","shivering","SRI","same","1","T","shivering","Y","43"
"","2757","same-different-html","107","1048922","0.0-3.0-104.0","","3478-4","""rude""","""harahara.wav""","90","suspenseful","RI","different","1","D","rude","Y","44"
"","2308","same-different-html","108","1054234","0.0-3.0-105.0","","3478-4","""careful""","""zokuzoku.wav""","191","vulgar","RNAdj","different","0","D","careful","Y","45"
"","2828","same-different-html","109","1060066","0.0-3.0-106.0","","3478-4","""rude""","""zukezuke.wav""","191","rude","RI","same","1","T","rude","Y","46"
"","1970","same-different-html","110","1065043","0.0-3.0-107.0","","3478-4","""crowded""","""hiku.wav""","90","agitated","SRI","different","1","D","crowded","Y","47"
"","2833","same-different-html","111","1070881","0.0-3.0-108.0","","3478-4","""gaping""","""pokapoka.wav""","90","gaping","RNRI","same","0","T","gaping","Y","48"
"[{""page_index"":0,""viewing_time"":56496}]","56496","instructions","112","1128379","0.0-3.0-109.0","","","","","","","","","","","","",""
