"view_history","rt","trial_type","trial_index","time_elapsed","internal_node_id","responses","Id","word","sound","key_press","TrueMeaning","WordType","answer","correct","TrialType","TargetMeaning","LegalTrial","trialNum"
"[{""page_index"":0,""viewing_time"":4704}]","4705","instructions","0","4707","0.0-0.0","","","","","","","","","","","","",""
"[{""page_index"":0,""viewing_time"":1431},{""page_index"":1,""viewing_time"":1191},{""page_index"":2,""viewing_time"":2793},{""page_index"":3,""viewing_time"":1799},{""page_index"":4,""viewing_time"":7872}]","15086","instructions","1","19794","0.0-1.0","","","","","","","","","","","","",""
"","12764","survey-multi-choice","2","32562","0.0-2.0","{""Q0"":""Yes"",""Q1"":""Yes"",""Q2"":""Yes"",""Q3"":""Yes"",""Q4"":""Yes""}","","","","","","","","","","","",""
"[{""page_index"":0,""viewing_time"":1438},{""page_index"":1,""viewing_time"":4728}]","6166","instructions","3","38729","0.0-3.0-0.0","","","","","","","","","","","","",""
"","3050","same-different-html-trial","4","47809","0.0-3.0-1.0","","0","""sushi""","""prc_sushi.wav""","32","","","","","","","",""
"[{""page_index"":0,""viewing_time"":4055}]","4055","instructions","5","52867","0.0-3.0-2.0","","","","","","","","","","","","",""
"","7089","same-different-html","6","61966","0.0-3.0-3.0","","0","""sushi""","""prc_sushi.wav""","191","","","same","1","","","0",""
"[{""page_index"":0,""viewing_time"":3459}]","3459","instructions","7","66426","0.0-3.0-4.0","","","","","","","","","","","","",""
"","3652","same-different-html","8","72086","0.0-3.0-5.0","","0","""cat""","""prc_sushi.wav""","90","","","different","1","","","0",""
"[{""page_index"":0,""viewing_time"":2938},{""page_index"":1,""viewing_time"":1544}]","4483","instructions","9","77570","0.0-3.0-6.0","","","","","","","","","","","","",""
"","2139","same-different-html-trial","10","85723","0.0-3.0-7.0","","0","""thank you""","""prc_arigato.wav""","32","","","","","","","",""
"[{""page_index"":0,""viewing_time"":2759}]","2759","instructions","11","89482","0.0-3.0-8.0","","","","","","","","","","","","",""
"","3044","same-different-html","12","94533","0.0-3.0-9.0","","0","""thank you""","""prc_arigato.wav""","191","","","same","1","","","0",""
"","3448","same-different-html","13","100989","0.0-3.0-10.0","","0","""cat""","""prc_arigato.wav""","191","","","different","0","","","0",""
"[{""page_index"":0,""viewing_time"":2179},{""page_index"":1,""viewing_time"":8817}]","10996","instructions","14","112988","0.0-3.0-11.0","","","","","","","","","","","","",""
"","362","same-different-html-trial","15","119364","0.0-3.0-12.0","","8396-8","""whispering""","""hiso.wav""","32","whispering","SRI","","","","","","1"
"","651","same-different-html-trial","16","127030","0.0-3.0-13.0","","8396-8","""chubby""","""bukubuku.wav""","32","chubby","RI","","","","","","2"
"","418","same-different-html-trial","17","134459","0.0-3.0-14.0","","8396-8","""shivering""","""buru.wav""","32","shivering","SRI","","","","","","3"
"","644","same-different-html-trial","18","142115","0.0-3.0-15.0","","8396-8","""dejected""","""gakugaku.wav""","32","dejected","RNRI","","","","","","4"
"","385","same-different-html-trial","19","150267","0.0-3.0-16.0","","8396-8","""sullen""","""musu.wav""","32","sullen","NRI","","","","","","5"
"","504","same-different-html-trial","20","160389","0.0-3.0-17.0","","8396-8","""fragile""","""yawayawa.wav""","32","fragile","RNAdj","","","","","","6"
"","4128","same-different-html-trial","21","176003","0.0-3.0-18.0","","8396-8","""impossible""","""murimuri.wav""","32","impossible","RNAdj","","","","","","7"
"","1035","same-different-html-trial","22","185852","0.0-3.0-19.0","","8396-8","""rude""","""zukezuke.wav""","32","rude","RI","","","","","","8"
"","1432","same-different-html-trial","23","197308","0.0-3.0-20.0","","8396-8","""smug""","""kiza.wav""","32","smug","NAdj","","","","","","9"
"","1229","same-different-html-trial","24","208853","0.0-3.0-21.0","","8396-8","""supple""","""shinnari.wav""","32","supple","NRI","","","","","","10"
"","458","same-different-html-trial","25","217342","0.0-3.0-22.0","","8396-8","""comfortable""","""raku.wav""","32","comfortable","NAdj","","","","","","11"
"","2162","same-different-html-trial","26","231037","0.0-3.0-23.0","","8396-8","""decisive""","""pishapisha.wav""","32","decisive","RNRI","","","","","","12"
"","1196","same-different-html-trial","27","243565","0.0-3.0-24.0","","8396-8","""pure""","""mukumuku.wav""","32","pure","RNAdj","","","","","","13"
"","1328","same-different-html-trial","28","255206","0.0-3.0-25.0","","8396-8","""exact""","""kakkiri.wav""","32","exact","NRI","","","","","","14"
"","9993","same-different-html-trial","29","274877","0.0-3.0-26.0","","8396-8","""harsh""","""koku.wav""","32","harsh","NAdj","","","","","","15"
"","353","same-different-html-trial","30","286229","0.0-3.0-27.0","","8396-8","""energetic""","""kibikibi.wav""","32","energetic","RI","","","","","","16"
"","495","same-different-html-trial","31","297374","0.0-3.0-28.0","","8396-8","""resolute""","""bassaribassari.wav""","32","resolute","RNRI","","","","","","17"
"","710","same-different-html-trial","32","307590","0.0-3.0-29.0","","8396-8","""wobbly""","""yura.wav""","32","wobbly","SRI","","","","","","18"
"","4037","same-different-html-trial","33","322917","0.0-3.0-30.0","","8396-8","""glossy""","""tsuya.wav""","32","glossy","SRI","","","","","","19"
"","593","same-different-html-trial","34","334462","0.0-3.0-31.0","","8396-8","""beneficial""","""toku.wav""","32","beneficial","NAdj","","","","","","20"
"","4381","same-different-html-trial","35","348263","0.0-3.0-32.0","","8396-8","""nonchalantly""","""kero.wav""","32","nonchalantly","NRI","","","","","","21"
"","346","same-different-html-trial","36","358727","0.0-3.0-33.0","","8396-8","""stiff""","""gowagowa.wav""","32","stiff","RI","","","","","","22"
"","588","same-different-html-trial","37","367761","0.0-3.0-34.0","","8396-8","""plump""","""potcharipotchari.wav""","32","plump","RNRI","","","","","","23"
"","394","same-different-html-trial","38","377503","0.0-3.0-35.0","","8396-8","""disadvantaged""","""furifuri.wav""","32","disadvantaged","RNAdj","","","","","","24"
"","325","same-different-html-trial","39","387214","0.0-3.0-36.0","","8396-8","""glossy""","""tsuya.wav""","32","glossy","SRI","","","","","","25"
"","529","same-different-html-trial","40","398417","0.0-3.0-37.0","","8396-8","""dejected""","""gakugaku.wav""","32","dejected","RNRI","","","","","","26"
"","745","same-different-html-trial","41","410623","0.0-3.0-38.0","","8396-8","""exact""","""kakkiri.wav""","32","exact","NRI","","","","","","27"
"","593","same-different-html-trial","42","421481","0.0-3.0-39.0","","8396-8","""wobbly""","""yura.wav""","32","wobbly","SRI","","","","","","28"
"","398","same-different-html-trial","43","431513","0.0-3.0-40.0","","8396-8","""impossible""","""murimuri.wav""","32","impossible","RNAdj","","","","","","29"
"","4167","same-different-html-trial","44","447050","0.0-3.0-41.0","","8396-8","""disadvantaged""","""furifuri.wav""","32","disadvantaged","RNAdj","","","","","","30"
"","421","same-different-html-trial","45","456304","0.0-3.0-42.0","","8396-8","""nonchalantly""","""kero.wav""","32","nonchalantly","NRI","","","","","","31"
"","682","same-different-html-trial","46","467568","0.0-3.0-43.0","","8396-8","""chubby""","""bukubuku.wav""","32","chubby","RI","","","","","","32"
"","392","same-different-html-trial","47","477280","0.0-3.0-44.0","","8396-8","""pure""","""mukumuku.wav""","32","pure","RNAdj","","","","","","33"
"","5131","same-different-html-trial","48","494019","0.0-3.0-45.0","","8396-8","""stiff""","""gowagowa.wav""","32","stiff","RI","","","","","","34"
"","578","same-different-html-trial","49","505699","0.0-3.0-46.0","","8396-8","""smug""","""kiza.wav""","32","smug","NAdj","","","","","","35"
"","11160","same-different-html-trial","50","528043","0.0-3.0-47.0","","8396-8","""supple""","""shinnari.wav""","32","supple","NRI","","","","","","36"
"","2509","same-different-html-trial","51","542394","0.0-3.0-48.0","","8396-8","""shivering""","""buru.wav""","32","shivering","SRI","","","","","","37"
"","986","same-different-html-trial","52","552874","0.0-3.0-49.0","","8396-8","""resolute""","""bassaribassari.wav""","32","resolute","RNRI","","","","","","38"
"","9287","same-different-html-trial","53","573178","0.0-3.0-50.0","","8396-8","""harsh""","""koku.wav""","32","harsh","NAdj","","","","","","39"
"","1","same-different-html-trial","54","583888","0.0-3.0-51.0","","8396-8","""fragile""","""yawayawa.wav""","32","fragile","RNAdj","","","","","","40"
"","1825","same-different-html-trial","55","594714","0.0-3.0-52.0","","8396-8","""sullen""","""musu.wav""","32","sullen","NRI","","","","","","41"
"","14441","same-different-html-trial","56","620333","0.0-3.0-53.0","","8396-8","""plump""","""potcharipotchari.wav""","32","plump","RNRI","","","","","","42"
"","5143","same-different-html-trial","57","637027","0.0-3.0-54.0","","8396-8","""energetic""","""kibikibi.wav""","32","energetic","RI","","","","","","43"
"","16154","same-different-html-trial","58","665039","0.0-3.0-55.0","","8396-8","""comfortable""","""raku.wav""","32","comfortable","NAdj","","","","","","44"
"","13167","same-different-html-trial","59","690053","0.0-3.0-56.0","","8396-8","""beneficial""","""toku.wav""","32","beneficial","NAdj","","","","","","45"
"","709","same-different-html-trial","60","700595","0.0-3.0-57.0","","8396-8","""decisive""","""pishapisha.wav""","32","decisive","RNRI","","","","","","46"
"","30521","same-different-html-trial","61","740407","0.0-3.0-58.0","","8396-8","""rude""","""zukezuke.wav""","32","rude","RI","","","","","","47"
"","11860","same-different-html-trial","62","763749","0.0-3.0-59.0","","8396-8","""whispering""","""hiso.wav""","32","whispering","SRI","","","","","","48"
"[{""page_index"":0,""viewing_time"":10661}]","10662","instructions","63","775413","0.0-3.0-60.0","","","","","","","","","","","","",""
"","3148","same-different-html","64","780567","0.0-3.0-61.0","","8396-8","""sullen""","""bassaribassari.wav""","191","resolute","RNRI","different","0","D","sullen","Y","1"
"","18904","same-different-html","65","802478","0.0-3.0-62.0","","8396-8","""supple""","""shinnari.wav""","191","supple","NRI","same","1","T","supple","Y","2"
"","3019","same-different-html","66","810903","0.0-3.0-63.0","","8396-8","""whispering""","""hiso.wav""","191","whispering","SRI","same","1","T","whispering","Y","3"
"","5691","same-different-html","67","822576","0.0-3.0-64.0","","8396-8","""rude""","""hiso.wav""","90","whispering","SRI","different","1","D","rude","Y","4"
"","18463","same-different-html","68","845351","0.0-3.0-65.0","","8396-8","""supple""","""furifuri.wav""","90","disadvantaged","RNAdj","different","1","D","supple","Y","5"
"","5913","same-different-html","69","854279","0.0-3.0-66.0","","8396-8","""decisive""","""kiza.wav""","191","smug","NAdj","different","0","D","decisive","Y","6"
"","7177","same-different-html","70","867063","0.0-3.0-67.0","","8396-8","""impossible""","""kakkiri.wav""","191","exact","NRI","different","0","D","impossible","Y","7"
"","10145","same-different-html","71","883040","0.0-3.0-68.0","","8396-8","""shivering""","""buru.wav""","90","shivering","SRI","same","0","T","shivering","Y","8"
"","9256","same-different-html","72","898145","0.0-3.0-69.0","","8396-8","""exact""","""kakkiri.wav""","191","exact","NRI","same","1","T","exact","Y","9"
"","23840","same-different-html","73","927729","0.0-3.0-70.0","","8396-8","""harsh""","""koku.wav""","191","harsh","NAdj","same","1","T","harsh","Y","10"
"","3809","same-different-html","74","936697","0.0-3.0-71.0","","8396-8","""shivering""","""mukumuku.wav""","90","pure","RNAdj","different","1","D","shivering","Y","11"
"","3554","same-different-html","75","945441","0.0-3.0-72.0","","8396-8","""decisive""","""pishapisha.wav""","191","decisive","RNRI","same","1","T","decisive","Y","12"
"","6168","same-different-html","76","957057","0.0-3.0-73.0","","8396-8","""comfortable""","""raku.wav""","90","comfortable","NAdj","same","0","T","comfortable","Y","13"
"","3346","same-different-html","77","966242","0.0-3.0-74.0","","8396-8","""harsh""","""buru.wav""","191","shivering","SRI","different","0","D","harsh","Y","14"
"","9564","same-different-html","78","981457","0.0-3.0-75.0","","8396-8","""resolute""","""bassaribassari.wav""","191","resolute","RNRI","same","1","T","resolute","Y","15"
"","2929","same-different-html","79","988815","0.0-3.0-76.0","","8396-8","""fragile""","""koku.wav""","90","harsh","NAdj","different","1","D","fragile","Y","16"
"","6834","same-different-html","80","998657","0.0-3.0-77.0","","8396-8","""fragile""","""yawayawa.wav""","191","fragile","RNAdj","same","1","T","fragile","Y","17"
"","4680","same-different-html","81","1007567","0.0-3.0-78.0","","8396-8","""smug""","""potcharipotchari.wav""","90","plump","RNRI","different","1","D","smug","Y","18"
"","3529","same-different-html","82","1014105","0.0-3.0-79.0","","8396-8","""stiff""","""murimuri.wav""","191","impossible","RNAdj","different","0","D","stiff","Y","19"
"","487","same-different-html","83","1017599","0.0-3.0-80.0","","8396-8","""smug""","""kiza.wav""","191","smug","NAdj","same","1","T","smug","Y","20"
"","17","same-different-html","84","1020625","0.0-3.0-81.0","","8396-8","""dejected""","""musu.wav""","90","sullen","NRI","different","1","D","dejected","Y","21"
"","169","same-different-html","85","1023799","0.0-3.0-82.0","","8396-8","""energetic""","""kibikibi.wav""","90","energetic","RI","same","0","T","energetic","Y","22"
"","10","same-different-html","86","1026817","0.0-3.0-83.0","","8396-8","""chubby""","""bukubuku.wav""","191","chubby","RI","same","1","T","chubby","Y","23"
"","23","same-different-html","87","1029848","0.0-3.0-84.0","","8396-8","""glossy""","""tsuya.wav""","191","glossy","SRI","same","1","T","glossy","Y","24"
"","72","same-different-html","88","1032927","0.0-3.0-85.0","","8396-8","""wobbly""","""pishapisha.wav""","191","decisive","RNRI","different","0","D","wobbly","Y","25"
"","181","same-different-html","89","1036112","0.0-3.0-86.0","","8396-8","""nonchalantly""","""toku.wav""","191","beneficial","NAdj","different","0","D","nonchalantly","Y","26"
"","249","same-different-html","90","1039367","0.0-3.0-87.0","","8396-8","""disadvantaged""","""bukubuku.wav""","191","chubby","RI","different","0","D","disadvantaged","Y","27"
"","66","same-different-html","91","1042440","0.0-3.0-88.0","","8396-8","""chubby""","""kibikibi.wav""","191","energetic","RI","different","0","D","chubby","Y","28"
"","227","same-different-html","92","1045672","0.0-3.0-89.0","","8396-8","""pure""","""tsuya.wav""","90","glossy","SRI","different","1","D","pure","Y","29"
"","186","same-different-html","93","1048865","0.0-3.0-90.0","","8396-8","""whispering""","""gowagowa.wav""","191","stiff","RI","different","0","D","whispering","Y","30"
"","17","same-different-html","94","1051888","0.0-3.0-91.0","","8396-8","""beneficial""","""yawayawa.wav""","191","fragile","RNAdj","different","0","D","beneficial","Y","31"
"","417","same-different-html","95","1055313","0.0-3.0-92.0","","8396-8","""impossible""","""murimuri.wav""","191","impossible","RNAdj","same","1","T","impossible","Y","32"
"","543","same-different-html","96","1058865","0.0-3.0-93.0","","8396-8","""glossy""","""gakugaku.wav""","191","dejected","RNRI","different","0","D","glossy","Y","33"
"","272","same-different-html","97","1062144","0.0-3.0-94.0","","8396-8","""wobbly""","""yura.wav""","191","wobbly","SRI","same","1","T","wobbly","Y","34"
"","338","same-different-html","98","1065489","0.0-3.0-95.0","","8396-8","""sullen""","""musu.wav""","191","sullen","NRI","same","1","T","sullen","Y","35"
"","40","same-different-html","99","1068536","0.0-3.0-96.0","","8396-8","""pure""","""mukumuku.wav""","191","pure","RNAdj","same","1","T","pure","Y","36"
"","64","same-different-html","100","1071609","0.0-3.0-97.0","","8396-8","""nonchalantly""","""kero.wav""","191","nonchalantly","NRI","same","1","T","nonchalantly","Y","37"
"","47","same-different-html","101","1074665","0.0-3.0-98.0","","8396-8","""resolute""","""kero.wav""","191","nonchalantly","NRI","different","0","D","resolute","Y","38"
"","80","same-different-html","102","1077752","0.0-3.0-99.0","","8396-8","""disadvantaged""","""furifuri.wav""","191","disadvantaged","RNAdj","same","1","T","disadvantaged","Y","39"
"","96","same-different-html","103","1080856","0.0-3.0-100.0","","8396-8","""energetic""","""yura.wav""","191","wobbly","SRI","different","0","D","energetic","Y","40"
"","167","same-different-html","104","1084032","0.0-3.0-101.0","","8396-8","""dejected""","""gakugaku.wav""","191","dejected","RNRI","same","1","T","dejected","Y","41"
"","95","same-different-html","105","1087136","0.0-3.0-102.0","","8396-8","""exact""","""zukezuke.wav""","191","rude","RI","different","0","D","exact","Y","42"
"","416","same-different-html","106","1090560","0.0-3.0-103.0","","8396-8","""plump""","""raku.wav""","191","comfortable","NAdj","different","0","D","plump","Y","43"
"","173","same-different-html","107","1093744","0.0-3.0-104.0","","8396-8","""beneficial""","""toku.wav""","191","beneficial","NAdj","same","1","T","beneficial","Y","44"
"","66","same-different-html","108","1096816","0.0-3.0-105.0","","8396-8","""stiff""","""gowagowa.wav""","191","stiff","RI","same","1","T","stiff","Y","45"
"","347","same-different-html","109","1100169","0.0-3.0-106.0","","8396-8","""comfortable""","""shinnari.wav""","191","supple","NRI","different","0","D","comfortable","Y","46"
"","14","same-different-html","110","1103191","0.0-3.0-107.0","","8396-8","""rude""","""zukezuke.wav""","191","rude","RI","same","1","T","rude","Y","47"
"","201","same-different-html","111","1106401","0.0-3.0-108.0","","8396-8","""plump""","""potcharipotchari.wav""","90","plump","RNRI","same","0","T","plump","Y","48"
"[{""page_index"":0,""viewing_time"":4217}]","4217","instructions","112","1111620","0.0-3.0-109.0","","","","","","","","","","","","",""
