"view_history","rt","trial_type","trial_index","time_elapsed","internal_node_id","responses","Id","word","sound","key_press","TrueMeaning","WordType","answer","correct","TrialType","TargetMeaning","LegalTrial","trialNum"
"[{""page_index"":0,""viewing_time"":4842}]","4842","instructions","0","4842","0.0-0.0","","","","","","","","","","","","",""
"[{""page_index"":0,""viewing_time"":1137},{""page_index"":1,""viewing_time"":1344},{""page_index"":2,""viewing_time"":1703},{""page_index"":3,""viewing_time"":6942},{""page_index"":4,""viewing_time"":26687}]","37814","instructions","1","42659","0.0-1.0","","","","","","","","","","","","",""
"","7555","survey-multi-choice","2","50239","0.0-2.0","{""Q0"":""Yes"",""Q1"":""Yes"",""Q2"":""Yes"",""Q3"":""Yes"",""Q4"":""Yes""}","","","","","","","","","","","",""
"[{""page_index"":0,""viewing_time"":1635},{""page_index"":1,""viewing_time"":1587}]","3222","instructions","3","53463","0.0-3.0-0.0","","","","","","","","","","","","",""
"","2480","same-different-html-trial","4","61960","0.0-3.0-1.0","","0","""sushi""","""prc_sushi.wav""","32","","","","","","","",""
"[{""page_index"":0,""viewing_time"":2691}]","2692","instructions","5","65655","0.0-3.0-2.0","","","","","","","","","","","","",""
"","2701","same-different-html","6","70372","0.0-3.0-3.0","","0","""sushi""","""prc_sushi.wav""","191","","","same","1","","","0",""
"[{""page_index"":0,""viewing_time"":3144}]","3145","instructions","7","74521","0.0-3.0-4.0","","","","","","","","","","","","",""
"","3177","same-different-html","8","79710","0.0-3.0-5.0","","0","""cat""","""prc_sushi.wav""","90","","","different","1","","","0",""
"[{""page_index"":0,""viewing_time"":3280},{""page_index"":1,""viewing_time"":1739}]","5020","instructions","9","85735","0.0-3.0-6.0","","","","","","","","","","","","",""
"","1759","same-different-html-trial","10","93505","0.0-3.0-7.0","","0","""thank you""","""prc_arigato.wav""","32","","","","","","","",""
"[{""page_index"":0,""viewing_time"":2924}]","2924","instructions","11","97433","0.0-3.0-8.0","","","","","","","","","","","","",""
"","18219","same-different-html","12","117657","0.0-3.0-9.0","","0","""thank you""","""prc_arigato.wav""","90","","","same","0","","","0",""
"","3025","same-different-html","13","123688","0.0-3.0-10.0","","0","""cat""","""prc_arigato.wav""","90","","","different","1","","","0",""
"[{""page_index"":0,""viewing_time"":1914},{""page_index"":1,""viewing_time"":4974}]","6889","instructions","14","131581","0.0-3.0-11.0","","","","","","","","","","","","",""
"","2222","same-different-html-trial","15","139821","0.0-3.0-12.0","","6342-9","""sudden""","""patapata.wav""","32","sudden","RNRI","","","","","","1"
"","2318","same-different-html-trial","16","149153","0.0-3.0-13.0","","6342-9","""deficient""","""fubi.wav""","32","deficient","NAdj","","","","","","2"
"","1238","same-different-html-trial","17","157408","0.0-3.0-14.0","","6342-9","""fat""","""debudebu.wav""","32","fat","RI","","","","","","3"
"","1283","same-different-html-trial","18","165704","0.0-3.0-15.0","","6342-9","""chatty""","""bera.wav""","32","chatty","SRI","","","","","","4"
"","3257","same-different-html-trial","19","175976","0.0-3.0-16.0","","6342-9","""decisive""","""pishapisha.wav""","32","decisive","RNRI","","","","","","5"
"","4765","same-different-html-trial","20","187753","0.0-3.0-17.0","","6342-9","""harsh""","""kokukoku.wav""","32","harsh","RNAdj","","","","","","6"
"","849","same-different-html-trial","21","195609","0.0-3.0-18.0","","6342-9","""careful""","""jikkurijikkuri.wav""","32","careful","RNRI","","","","","","7"
"","2944","same-different-html-trial","22","205561","0.0-3.0-19.0","","6342-9","""smug""","""kiza.wav""","32","smug","NAdj","","","","","","8"
"","1701","same-different-html-trial","23","214280","0.0-3.0-20.0","","6342-9","""shivering""","""buruburu.wav""","32","shivering","RI","","","","","","9"
"","5950","same-different-html-trial","24","227241","0.0-3.0-21.0","","6342-9","""supple""","""shinnari.wav""","32","supple","NRI","","","","","","10"
"","1481","same-different-html-trial","25","235738","0.0-3.0-22.0","","6342-9","""sturdy""","""gashigashi.wav""","32","sturdy","RNRI","","","","","","11"
"","693","same-different-html-trial","26","243441","0.0-3.0-23.0","","6342-9","""to change ocmpletely""","""gara.wav""","32","to change ocmpletely","NRI","","","","","","12"
"","1139","same-different-html-trial","27","251600","0.0-3.0-24.0","","6342-9","""exact""","""kakkiri.wav""","32","exact","NRI","","","","","","13"
"","1713","same-different-html-trial","28","260328","0.0-3.0-25.0","","6342-9","""tasteless""","""yabo.wav""","32","tasteless","NAdj","","","","","","14"
"","1073","same-different-html-trial","29","268409","0.0-3.0-26.0","","6342-9","""rare""","""maremare.wav""","32","rare","RNAdj","","","","","","15"
"","1273","same-different-html-trial","30","276696","0.0-3.0-27.0","","6342-9","""suspenseful""","""harahara.wav""","32","suspenseful","RI","","","","","","16"
"","1266","same-different-html-trial","31","284977","0.0-3.0-28.0","","6342-9","""rash""","""muchamucha.wav""","32","rash","RNAdj","","","","","","17"
"","1156","same-different-html-trial","32","293145","0.0-3.0-29.0","","6342-9","""rude""","""zukezuke.wav""","32","rude","RI","","","","","","18"
"","648","same-different-html-trial","33","300800","0.0-3.0-30.0","","6342-9","""stiff""","""gowa.wav""","32","stiff","SRI","","","","","","19"
"","1327","same-different-html-trial","34","309144","0.0-3.0-31.0","","6342-9","""happy""","""uki.wav""","32","happy","SRI","","","","","","20"
"","950","same-different-html-trial","35","317104","0.0-3.0-32.0","","6342-9","""excessive""","""kado.wav""","32","excessive","NAdj","","","","","","21"
"","1209","same-different-html-trial","36","325328","0.0-3.0-33.0","","6342-9","""agitated""","""hiku.wav""","32","agitated","SRI","","","","","","22"
"","1746","same-different-html-trial","37","334088","0.0-3.0-34.0","","6342-9","""plump""","""potchari.wav""","32","plump","NRI","","","","","","23"
"","2001","same-different-html-trial","38","343097","0.0-3.0-35.0","","6342-9","""vulgar""","""zokuzoku.wav""","32","vulgar","RNAdj","","","","","","24"
"","1182","same-different-html-trial","39","351296","0.0-3.0-36.0","","6342-9","""to change ocmpletely""","""gara.wav""","32","to change ocmpletely","NRI","","","","","","25"
"","2005","same-different-html-trial","40","360312","0.0-3.0-37.0","","6342-9","""careful""","""jikkurijikkuri.wav""","32","careful","RNRI","","","","","","26"
"","189","same-different-html-trial","41","367504","0.0-3.0-38.0","","6342-9","""rash""","""muchamucha.wav""","32","rash","RNAdj","","","","","","27"
"","337","same-different-html-trial","42","374865","0.0-3.0-39.0","","6342-9","""chatty""","""bera.wav""","32","chatty","SRI","","","","","","28"
"","345","same-different-html-trial","43","382217","0.0-3.0-40.0","","6342-9","""sturdy""","""gashigashi.wav""","32","sturdy","RNRI","","","","","","29"
"","1836","same-different-html-trial","44","391064","0.0-3.0-41.0","","6342-9","""suspenseful""","""harahara.wav""","32","suspenseful","RI","","","","","","30"
"","486","same-different-html-trial","45","398560","0.0-3.0-42.0","","6342-9","""rude""","""zukezuke.wav""","32","rude","RI","","","","","","31"
"","2623","same-different-html-trial","46","408192","0.0-3.0-43.0","","6342-9","""fat""","""debudebu.wav""","32","fat","RI","","","","","","32"
"","429","same-different-html-trial","47","415632","0.0-3.0-44.0","","6342-9","""plump""","""potchari.wav""","32","plump","NRI","","","","","","33"
"","919","same-different-html-trial","48","423568","0.0-3.0-45.0","","6342-9","""excessive""","""kado.wav""","32","excessive","NAdj","","","","","","34"
"","1028","same-different-html-trial","49","431608","0.0-3.0-46.0","","6342-9","""smug""","""kiza.wav""","32","smug","NAdj","","","","","","35"
"","20439","same-different-html-trial","50","459064","0.0-3.0-47.0","","6342-9","""deficient""","""fubi.wav""","32","deficient","NAdj","","","","","","36"
"","349","same-different-html-trial","51","466428","0.0-3.0-48.0","","6342-9","""vulgar""","""zokuzoku.wav""","32","vulgar","RNAdj","","","","","","37"
"","605","same-different-html-trial","52","474051","0.0-3.0-49.0","","6342-9","""exact""","""kakkiri.wav""","32","exact","NRI","","","","","","38"
"","631","same-different-html-trial","53","481700","0.0-3.0-50.0","","6342-9","""tasteless""","""yabo.wav""","32","tasteless","NAdj","","","","","","39"
"","1146","same-different-html-trial","54","489865","0.0-3.0-51.0","","6342-9","""supple""","""shinnari.wav""","32","supple","NRI","","","","","","40"
"","557","same-different-html-trial","55","497432","0.0-3.0-52.0","","6342-9","""stiff""","""gowa.wav""","32","stiff","SRI","","","","","","41"
"","1173","same-different-html-trial","56","505617","0.0-3.0-53.0","","6342-9","""shivering""","""buruburu.wav""","32","shivering","RI","","","","","","42"
"","674","same-different-html-trial","57","513302","0.0-3.0-54.0","","6342-9","""agitated""","""hiku.wav""","32","agitated","SRI","","","","","","43"
"","721","same-different-html-trial","58","521032","0.0-3.0-55.0","","6342-9","""decisive""","""pishapisha.wav""","32","decisive","RNRI","","","","","","44"
"","407","same-different-html-trial","59","528449","0.0-3.0-56.0","","6342-9","""happy""","""uki.wav""","32","happy","SRI","","","","","","45"
"","455","same-different-html-trial","60","535913","0.0-3.0-57.0","","6342-9","""rare""","""maremare.wav""","32","rare","RNAdj","","","","","","46"
"","374","same-different-html-trial","61","543296","0.0-3.0-58.0","","6342-9","""harsh""","""kokukoku.wav""","32","harsh","RNAdj","","","","","","47"
"","933","same-different-html-trial","62","551240","0.0-3.0-59.0","","6342-9","""sudden""","""patapata.wav""","32","sudden","RNRI","","","","","","48"
"[{""page_index"":0,""viewing_time"":9054}]","9054","instructions","63","561296","0.0-3.0-60.0","","","","","","","","","","","","",""
"","3537","same-different-html","64","566840","0.0-3.0-61.0","","6342-9","""rare""","""maremare.wav""","90","rare","RNAdj","same","0","T","rare","Y","1"
"","5760","same-different-html","65","575609","0.0-3.0-62.0","","6342-9","""shivering""","""buruburu.wav""","90","shivering","RI","same","0","T","shivering","Y","2"
"","3838","same-different-html","66","582456","0.0-3.0-63.0","","6342-9","""happy""","""bera.wav""","191","chatty","SRI","different","0","D","happy","Y","3"
"","1815","same-different-html","67","587273","0.0-3.0-64.0","","6342-9","""shivering""","""patapata.wav""","90","sudden","RNRI","different","1","D","shivering","Y","4"
"","2055","same-different-html","68","592337","0.0-3.0-65.0","","6342-9","""decisive""","""pishapisha.wav""","191","decisive","RNRI","same","1","T","decisive","Y","5"
"","1634","same-different-html","69","596977","0.0-3.0-66.0","","6342-9","""supple""","""shinnari.wav""","90","supple","NRI","same","0","T","supple","Y","6"
"","1670","same-different-html","70","601657","0.0-3.0-67.0","","6342-9","""supple""","""muchamucha.wav""","191","rash","RNAdj","different","0","D","supple","Y","7"
"","1528","same-different-html","71","606192","0.0-3.0-68.0","","6342-9","""vulgar""","""kado.wav""","90","excessive","NAdj","different","1","D","vulgar","Y","8"
"","1609","same-different-html","72","610808","0.0-3.0-69.0","","6342-9","""rare""","""debudebu.wav""","90","fat","RI","different","1","D","rare","Y","9"
"","1401","same-different-html","73","615218","0.0-3.0-70.0","","6342-9","""fat""","""debudebu.wav""","90","fat","RI","same","0","T","fat","Y","10"
"","1169","same-different-html","74","619393","0.0-3.0-71.0","","6342-9","""happy""","""uki.wav""","191","happy","SRI","same","1","T","happy","Y","11"
"","1541","same-different-html","75","623945","0.0-3.0-72.0","","6342-9","""harsh""","""kiza.wav""","90","smug","NAdj","different","1","D","harsh","Y","12"
"","2412","same-different-html","76","629360","0.0-3.0-73.0","","6342-9","""sudden""","""jikkurijikkuri.wav""","191","careful","RNRI","different","0","D","sudden","Y","13"
"","1464","same-different-html","77","633833","0.0-3.0-74.0","","6342-9","""exact""","""kakkiri.wav""","90","exact","NRI","same","0","T","exact","Y","14"
"","1980","same-different-html","78","638816","0.0-3.0-75.0","","6342-9","""deficient""","""kokukoku.wav""","90","harsh","RNAdj","different","1","D","deficient","Y","15"
"","1639","same-different-html","79","643457","0.0-3.0-76.0","","6342-9","""vulgar""","""zokuzoku.wav""","191","vulgar","RNAdj","same","1","T","vulgar","Y","16"
"","1367","same-different-html","80","647832","0.0-3.0-77.0","","6342-9","""plump""","""potchari.wav""","90","plump","NRI","same","0","T","plump","Y","17"
"","1834","same-different-html","81","652673","0.0-3.0-78.0","","6342-9","""careful""","""jikkurijikkuri.wav""","90","careful","RNRI","same","0","T","careful","Y","18"
"","1723","same-different-html","82","657401","0.0-3.0-79.0","","6342-9","""sudden""","""patapata.wav""","191","sudden","RNRI","same","1","T","sudden","Y","19"
"","1935","same-different-html","83","662345","0.0-3.0-80.0","","6342-9","""harsh""","""kokukoku.wav""","191","harsh","RNAdj","same","1","T","harsh","Y","20"
"","1466","same-different-html","84","666816","0.0-3.0-81.0","","6342-9","""deficient""","""fubi.wav""","90","deficient","NAdj","same","0","T","deficient","Y","21"
"","1034","same-different-html","85","670857","0.0-3.0-82.0","","6342-9","""stiff""","""fubi.wav""","90","deficient","NAdj","different","1","D","stiff","Y","22"
"","984","same-different-html","86","674848","0.0-3.0-83.0","","6342-9","""agitated""","""shinnari.wav""","191","supple","NRI","different","0","D","agitated","Y","23"
"","1110","same-different-html","87","678961","0.0-3.0-84.0","","6342-9","""suspenseful""","""harahara.wav""","90","suspenseful","RI","same","0","T","suspenseful","Y","24"
"","1314","same-different-html","88","683281","0.0-3.0-85.0","","6342-9","""chatty""","""bera.wav""","191","chatty","SRI","same","1","T","chatty","Y","25"
"","1272","same-different-html","89","687561","0.0-3.0-86.0","","6342-9","""sturdy""","""gowa.wav""","90","stiff","SRI","different","1","D","sturdy","Y","26"
"","1144","same-different-html","90","691712","0.0-3.0-87.0","","6342-9","""excessive""","""kado.wav""","191","excessive","NAdj","same","1","T","excessive","Y","27"
"","1440","same-different-html","91","696161","0.0-3.0-88.0","","6342-9","""tasteless""","""gashigashi.wav""","191","sturdy","RNRI","different","0","D","tasteless","Y","28"
"","1372","same-different-html","92","700537","0.0-3.0-89.0","","6342-9","""sturdy""","""gashigashi.wav""","191","sturdy","RNRI","same","1","T","sturdy","Y","29"
"","1880","same-different-html","93","705425","0.0-3.0-90.0","","6342-9","""to change ocmpletely""","""hiku.wav""","191","agitated","SRI","different","0","D","to change ocmpletely","Y","30"
"","1387","same-different-html","94","709817","0.0-3.0-91.0","","6342-9","""tasteless""","""yabo.wav""","191","tasteless","NAdj","same","1","T","tasteless","Y","31"
"","1483","same-different-html","95","714305","0.0-3.0-92.0","","6342-9","""excessive""","""harahara.wav""","191","suspenseful","RI","different","0","D","excessive","Y","32"
"","1201","same-different-html","96","718512","0.0-3.0-93.0","","6342-9","""chatty""","""yabo.wav""","90","tasteless","NAdj","different","1","D","chatty","Y","33"
"","1753","same-different-html","97","723272","0.0-3.0-94.0","","6342-9","""decisive""","""zokuzoku.wav""","90","vulgar","RNAdj","different","1","D","decisive","Y","34"
"","1597","same-different-html","98","727872","0.0-3.0-95.0","","6342-9","""plump""","""pishapisha.wav""","90","decisive","RNRI","different","1","D","plump","Y","35"
"","1437","same-different-html","99","732313","0.0-3.0-96.0","","6342-9","""exact""","""potchari.wav""","191","plump","NRI","different","0","D","exact","Y","36"
"","1330","same-different-html","100","736648","0.0-3.0-97.0","","6342-9","""fat""","""buruburu.wav""","191","shivering","RI","different","0","D","fat","Y","37"
"","1544","same-different-html","101","741200","0.0-3.0-98.0","","6342-9","""to change ocmpletely""","""gara.wav""","90","to change ocmpletely","NRI","same","0","T","to change ocmpletely","Y","38"
"","1400","same-different-html","102","745609","0.0-3.0-99.0","","6342-9","""rash""","""zukezuke.wav""","191","rude","RI","different","0","D","rash","Y","39"
"","1580","same-different-html","103","750193","0.0-3.0-100.0","","6342-9","""agitated""","""hiku.wav""","90","agitated","SRI","same","0","T","agitated","Y","40"
"","1331","same-different-html","104","754529","0.0-3.0-101.0","","6342-9","""smug""","""kiza.wav""","90","smug","NAdj","same","0","T","smug","Y","41"
"","1186","same-different-html","105","758720","0.0-3.0-102.0","","6342-9","""stiff""","""gowa.wav""","191","stiff","SRI","same","1","T","stiff","Y","42"
"","1151","same-different-html","106","762872","0.0-3.0-103.0","","6342-9","""suspenseful""","""uki.wav""","191","happy","SRI","different","0","D","suspenseful","Y","43"
"","1326","same-different-html","107","767200","0.0-3.0-104.0","","6342-9","""rude""","""kakkiri.wav""","90","exact","NRI","different","1","D","rude","Y","44"
"","1505","same-different-html","108","771712","0.0-3.0-105.0","","6342-9","""rash""","""muchamucha.wav""","90","rash","RNAdj","same","0","T","rash","Y","45"
"","1470","same-different-html","109","776184","0.0-3.0-106.0","","6342-9","""rude""","""zukezuke.wav""","191","rude","RI","same","1","T","rude","Y","46"
"","7765","same-different-html","110","786953","0.0-3.0-107.0","","6342-9","""careful""","""gara.wav""","90","to change ocmpletely","NRI","different","1","D","careful","Y","47"
"","930","same-different-html","111","790888","0.0-3.0-108.0","","6342-9","""smug""","""maremare.wav""","191","rare","RNAdj","different","0","D","smug","Y","48"
"[{""page_index"":0,""viewing_time"":24648}]","24648","instructions","112","816537","0.0-3.0-109.0","","","","","","","","","","","","",""
