"view_history","rt","trial_type","trial_index","time_elapsed","internal_node_id","responses","Id","word","sound","key_press","TrueMeaning","WordType","answer","correct","TrialType","TargetMeaning","LegalTrial","trialNum"
"[{""page_index"":0,""viewing_time"":7673}]","7674","instructions","0","7675","0.0-0.0","","","","","","","","","","","","",""
"[{""page_index"":0,""viewing_time"":2475},{""page_index"":1,""viewing_time"":2089},{""page_index"":2,""viewing_time"":6303},{""page_index"":3,""viewing_time"":8391},{""page_index"":4,""viewing_time"":33601}]","52859","instructions","1","60537","0.0-1.0","","","","","","","","","","","","",""
"","12221","survey-multi-choice","2","72771","0.0-2.0","{""Q0"":""Yes"",""Q1"":""Yes"",""Q2"":""Yes"",""Q3"":""Yes"",""Q4"":""Yes""}","","","","","","","","","","","",""
"[{""page_index"":0,""viewing_time"":1532},{""page_index"":1,""viewing_time"":4905}]","6437","instructions","3","79209","0.0-3.0-0.0","","","","","","","","","","","","",""
"","2691","same-different-html-trial","4","87935","0.0-3.0-1.0","","0","""sushi""","""prc_sushi.wav""","32","","","","","","","",""
"[{""page_index"":0,""viewing_time"":7728}]","7729","instructions","5","96665","0.0-3.0-2.0","","","","","","","","","","","","",""
"","4024","same-different-html","6","102694","0.0-3.0-3.0","","0","""sushi""","""prc_sushi.wav""","191","","","same","1","","","0",""
"[{""page_index"":0,""viewing_time"":4035}]","4035","instructions","7","107729","0.0-3.0-4.0","","","","","","","","","","","","",""
"","1391","same-different-html","8","111126","0.0-3.0-5.0","","0","""cat""","""prc_sushi.wav""","90","","","different","1","","","0",""
"[{""page_index"":0,""viewing_time"":3441},{""page_index"":1,""viewing_time"":2097}]","5538","instructions","9","117665","0.0-3.0-6.0","","","","","","","","","","","","",""
"","3160","same-different-html-trial","10","126831","0.0-3.0-7.0","","0","""thank you""","""prc_arigato.wav""","32","","","","","","","",""
"[{""page_index"":0,""viewing_time"":3216}]","3216","instructions","11","131048","0.0-3.0-8.0","","","","","","","","","","","","",""
"","2969","same-different-html","12","136021","0.0-3.0-9.0","","0","""thank you""","""prc_arigato.wav""","191","","","same","1","","","0",""
"","3068","same-different-html","13","142092","0.0-3.0-10.0","","0","""cat""","""prc_arigato.wav""","90","","","different","1","","","0",""
"[{""page_index"":0,""viewing_time"":1722},{""page_index"":1,""viewing_time"":16376}]","18098","instructions","14","161192","0.0-3.0-11.0","","","","","","","","","","","","",""
"","1436","same-different-html-trial","15","168637","0.0-3.0-12.0","","1519-2","""shivering""","""buruburu.wav""","32","shivering","RI","","","","","","1"
"","2398","same-different-html-trial","16","178045","0.0-3.0-13.0","","1519-2","""beneficial""","""tokutoku.wav""","32","beneficial","RNAdj","","","","","","2"
"","2614","same-different-html-trial","17","187668","0.0-3.0-14.0","","1519-2","""offended""","""kachinkachin.wav""","32","offended","RNRI","","","","","","3"
"","3592","same-different-html-trial","18","198268","0.0-3.0-15.0","","1519-2","""whole""","""goso.wav""","32","whole","NRI","","","","","","4"
"","1359","same-different-html-trial","19","206636","0.0-3.0-16.0","","1519-2","""suspenseful""","""hara.wav""","32","suspenseful","SRI","","","","","","5"
"","2051","same-different-html-trial","20","215693","0.0-3.0-17.0","","1519-2","""glossy""","""tsuya.wav""","32","glossy","SRI","","","","","","6"
"","2262","same-different-html-trial","21","224966","0.0-3.0-18.0","","1519-2","""careful""","""jikkurijikkuri.wav""","32","careful","RNRI","","","","","","7"
"","2173","same-different-html-trial","22","234147","0.0-3.0-19.0","","1519-2","""perfect""","""batchiri.wav""","32","perfect","NRI","","","","","","8"
"","1624","same-different-html-trial","23","242779","0.0-3.0-20.0","","1519-2","""rude""","""zuke.wav""","32","rude","SRI","","","","","","9"
"","1202","same-different-html-trial","24","250989","0.0-3.0-21.0","","1519-2","""pure""","""muku.wav""","32","pure","NAdj","","","","","","10"
"","1552","same-different-html-trial","25","259547","0.0-3.0-22.0","","1519-2","""stupid""","""baka.wav""","32","stupid","NAdj","","","","","","11"
"","1161","same-different-html-trial","26","267716","0.0-3.0-23.0","","1519-2","""dejected""","""gaku.wav""","32","dejected","NRI","","","","","","12"
"","1727","same-different-html-trial","27","276453","0.0-3.0-24.0","","1519-2","""fast asleep""","""gussurigussuri.wav""","32","fast asleep","RNRI","","","","","","13"
"","1397","same-different-html-trial","28","284860","0.0-3.0-25.0","","1519-2","""harsh""","""kokukoku.wav""","32","harsh","RNAdj","","","","","","14"
"","1424","same-different-html-trial","29","293290","0.0-3.0-26.0","","1519-2","""gaping""","""poka.wav""","32","gaping","NRI","","","","","","15"
"","1520","same-different-html-trial","30","301819","0.0-3.0-27.0","","1519-2","""whispering""","""hisohiso.wav""","32","whispering","RI","","","","","","16"
"","1128","same-different-html-trial","31","309956","0.0-3.0-28.0","","1519-2","""deficient""","""fubifubi.wav""","32","deficient","RNAdj","","","","","","17"
"","1713","same-different-html-trial","32","318676","0.0-3.0-29.0","","1519-2","""vulgar""","""zoku.wav""","32","vulgar","NAdj","","","","","","18"
"","1686","same-different-html-trial","33","327370","0.0-3.0-30.0","","1519-2","""humid""","""mushi.wav""","32","humid","SRI","","","","","","19"
"","1282","same-different-html-trial","34","335658","0.0-3.0-31.0","","1519-2","""rare""","""maremare.wav""","32","rare","RNAdj","","","","","","20"
"","1610","same-different-html-trial","35","344276","0.0-3.0-32.0","","1519-2","""messy""","""gochagocha.wav""","32","messy","RI","","","","","","21"
"","1176","same-different-html-trial","36","352460","0.0-3.0-33.0","","1519-2","""exact""","""kakkirikakkiri.wav""","32","exact","RNRI","","","","","","22"
"","1726","same-different-html-trial","37","361193","0.0-3.0-34.0","","1519-2","""rash""","""mucha.wav""","32","rash","NAdj","","","","","","23"
"","1722","same-different-html-trial","38","369923","0.0-3.0-35.0","","1519-2","""worn out""","""boroboro.wav""","32","worn out","RI","","","","","","24"
"","3040","same-different-html-trial","39","379969","0.0-3.0-36.0","","1519-2","""dejected""","""gaku.wav""","32","dejected","NRI","","","","","","25"
"","1080","same-different-html-trial","40","388057","0.0-3.0-37.0","","1519-2","""beneficial""","""tokutoku.wav""","32","beneficial","RNAdj","","","","","","26"
"","1586","same-different-html-trial","41","396649","0.0-3.0-38.0","","1519-2","""gaping""","""poka.wav""","32","gaping","NRI","","","","","","27"
"","1247","same-different-html-trial","42","404905","0.0-3.0-39.0","","1519-2","""worn out""","""boroboro.wav""","32","worn out","RI","","","","","","28"
"","1129","same-different-html-trial","43","413042","0.0-3.0-40.0","","1519-2","""stupid""","""baka.wav""","32","stupid","NAdj","","","","","","29"
"","4231","same-different-html-trial","44","424280","0.0-3.0-41.0","","1519-2","""perfect""","""batchiri.wav""","32","perfect","NRI","","","","","","30"
"","2022","same-different-html-trial","45","433312","0.0-3.0-42.0","","1519-2","""humid""","""mushi.wav""","32","humid","SRI","","","","","","31"
"","1799","same-different-html-trial","46","442120","0.0-3.0-43.0","","1519-2","""harsh""","""kokukoku.wav""","32","harsh","RNAdj","","","","","","32"
"","1334","same-different-html-trial","47","450464","0.0-3.0-44.0","","1519-2","""suspenseful""","""hara.wav""","32","suspenseful","SRI","","","","","","33"
"","1689","same-different-html-trial","48","459161","0.0-3.0-45.0","","1519-2","""whispering""","""hisohiso.wav""","32","whispering","RI","","","","","","34"
"","1752","same-different-html-trial","49","467921","0.0-3.0-46.0","","1519-2","""deficient""","""fubifubi.wav""","32","deficient","RNAdj","","","","","","35"
"","1888","same-different-html-trial","50","476816","0.0-3.0-47.0","","1519-2","""pure""","""muku.wav""","32","pure","NAdj","","","","","","36"
"","1535","same-different-html-trial","51","485360","0.0-3.0-48.0","","1519-2","""messy""","""gochagocha.wav""","32","messy","RI","","","","","","37"
"","1802","same-different-html-trial","52","494170","0.0-3.0-49.0","","1519-2","""shivering""","""buruburu.wav""","32","shivering","RI","","","","","","38"
"","1708","same-different-html-trial","53","502887","0.0-3.0-50.0","","1519-2","""rare""","""maremare.wav""","32","rare","RNAdj","","","","","","39"
"","1650","same-different-html-trial","54","511544","0.0-3.0-51.0","","1519-2","""vulgar""","""zoku.wav""","32","vulgar","NAdj","","","","","","40"
"","2414","same-different-html-trial","55","520967","0.0-3.0-52.0","","1519-2","""exact""","""kakkirikakkiri.wav""","32","exact","RNRI","","","","","","41"
"","1688","same-different-html-trial","56","529663","0.0-3.0-53.0","","1519-2","""rash""","""mucha.wav""","32","rash","NAdj","","","","","","42"
"","1672","same-different-html-trial","57","538342","0.0-3.0-54.0","","1519-2","""glossy""","""tsuya.wav""","32","glossy","SRI","","","","","","43"
"","2368","same-different-html-trial","58","547719","0.0-3.0-55.0","","1519-2","""careful""","""jikkurijikkuri.wav""","32","careful","RNRI","","","","","","44"
"","1983","same-different-html-trial","59","556711","0.0-3.0-56.0","","1519-2","""offended""","""kachinkachin.wav""","32","offended","RNRI","","","","","","45"
"","1705","same-different-html-trial","60","565423","0.0-3.0-57.0","","1519-2","""rude""","""zuke.wav""","32","rude","SRI","","","","","","46"
"","2255","same-different-html-trial","61","574685","0.0-3.0-58.0","","1519-2","""fast asleep""","""gussurigussuri.wav""","32","fast asleep","RNRI","","","","","","47"
"","2799","same-different-html-trial","62","584494","0.0-3.0-59.0","","1519-2","""whole""","""goso.wav""","32","whole","NRI","","","","","","48"
"[{""page_index"":0,""viewing_time"":9673}]","9673","instructions","63","595168","0.0-3.0-60.0","","","","","","","","","","","","",""
"","2730","same-different-html","64","599902","0.0-3.0-61.0","","1519-2","""perfect""","""batchiri.wav""","90","perfect","NRI","same","0","T","perfect","Y","1"
"","3587","same-different-html","65","606493","0.0-3.0-62.0","","1519-2","""fast asleep""","""gochagocha.wav""","90","messy","RI","different","1","D","fast asleep","Y","2"
"","2980","same-different-html","66","612477","0.0-3.0-63.0","","1519-2","""perfect""","""kokukoku.wav""","90","harsh","RNAdj","different","1","D","perfect","Y","3"
"","3013","same-different-html","67","618493","0.0-3.0-64.0","","1519-2","""exact""","""kakkirikakkiri.wav""","191","exact","RNRI","same","1","T","exact","Y","4"
"","3380","same-different-html","68","624876","0.0-3.0-65.0","","1519-2","""dejected""","""maremare.wav""","191","rare","RNAdj","different","0","D","dejected","Y","5"
"","2905","same-different-html","69","630790","0.0-3.0-66.0","","1519-2","""vulgar""","""zoku.wav""","191","vulgar","NAdj","same","1","T","vulgar","Y","6"
"","2980","same-different-html","70","636772","0.0-3.0-67.0","","1519-2","""vulgar""","""baka.wav""","90","stupid","NAdj","different","1","D","vulgar","Y","7"
"","3252","same-different-html","71","643029","0.0-3.0-68.0","","1519-2","""rare""","""maremare.wav""","191","rare","RNAdj","same","1","T","rare","Y","8"
"","2987","same-different-html","72","649019","0.0-3.0-69.0","","1519-2","""rare""","""batchiri.wav""","90","perfect","NRI","different","1","D","rare","Y","9"
"","2861","same-different-html","73","654885","0.0-3.0-70.0","","1519-2","""messy""","""mushi.wav""","90","humid","SRI","different","1","D","messy","Y","10"
"","3298","same-different-html","74","661188","0.0-3.0-71.0","","1519-2","""rude""","""zuke.wav""","191","rude","SRI","same","1","T","rude","Y","11"
"","2925","same-different-html","75","667117","0.0-3.0-72.0","","1519-2","""rude""","""poka.wav""","90","gaping","NRI","different","1","D","rude","Y","12"
"","3068","same-different-html","76","673188","0.0-3.0-73.0","","1519-2","""whole""","""zoku.wav""","191","vulgar","NAdj","different","0","D","whole","Y","13"
"","2932","same-different-html","77","679124","0.0-3.0-74.0","","1519-2","""suspenseful""","""fubifubi.wav""","90","deficient","RNAdj","different","1","D","suspenseful","Y","14"
"","3161","same-different-html","78","685291","0.0-3.0-75.0","","1519-2","""offended""","""muku.wav""","90","pure","NAdj","different","1","D","offended","Y","15"
"","2837","same-different-html","79","691132","0.0-3.0-76.0","","1519-2","""humid""","""goso.wav""","90","whole","NRI","different","1","D","humid","Y","16"
"","2882","same-different-html","80","697019","0.0-3.0-77.0","","1519-2","""suspenseful""","""hara.wav""","191","suspenseful","SRI","same","1","T","suspenseful","Y","17"
"","2909","same-different-html","81","702931","0.0-3.0-78.0","","1519-2","""harsh""","""kokukoku.wav""","191","harsh","RNAdj","same","1","T","harsh","Y","18"
"","2924","same-different-html","82","708859","0.0-3.0-79.0","","1519-2","""deficient""","""fubifubi.wav""","191","deficient","RNAdj","same","1","T","deficient","Y","19"
"","2925","same-different-html","83","714788","0.0-3.0-80.0","","1519-2","""whispering""","""hisohiso.wav""","191","whispering","RI","same","1","T","whispering","Y","20"
"","2836","same-different-html","84","720627","0.0-3.0-81.0","","1519-2","""offended""","""kachinkachin.wav""","191","offended","RNRI","same","1","T","offended","Y","21"
"","2917","same-different-html","85","726547","0.0-3.0-82.0","","1519-2","""worn out""","""boroboro.wav""","191","worn out","RI","same","1","T","worn out","Y","22"
"","2907","same-different-html","86","732458","0.0-3.0-83.0","","1519-2","""whole""","""goso.wav""","90","whole","NRI","same","0","T","whole","Y","23"
"","2997","same-different-html","87","738460","0.0-3.0-84.0","","1519-2","""beneficial""","""tokutoku.wav""","191","beneficial","RNAdj","same","1","T","beneficial","Y","24"
"","2873","same-different-html","88","744339","0.0-3.0-85.0","","1519-2","""shivering""","""buruburu.wav""","191","shivering","RI","same","1","T","shivering","Y","25"
"","2949","same-different-html","89","750291","0.0-3.0-86.0","","1519-2","""worn out""","""buruburu.wav""","90","shivering","RI","different","1","D","worn out","Y","26"
"","2908","same-different-html","90","756203","0.0-3.0-87.0","","1519-2","""harsh""","""hisohiso.wav""","90","whispering","RI","different","1","D","harsh","Y","27"
"","2884","same-different-html","91","762091","0.0-3.0-88.0","","1519-2","""stupid""","""jikkurijikkuri.wav""","90","careful","RNRI","different","1","D","stupid","Y","28"
"","2875","same-different-html","92","767970","0.0-3.0-89.0","","1519-2","""dejected""","""gaku.wav""","90","dejected","NRI","same","0","T","dejected","Y","29"
"","2925","same-different-html","93","773898","0.0-3.0-90.0","","1519-2","""pure""","""gussurigussuri.wav""","90","fast asleep","RNRI","different","1","D","pure","Y","30"
"","2875","same-different-html","94","779777","0.0-3.0-91.0","","1519-2","""shivering""","""gaku.wav""","90","dejected","NRI","different","1","D","shivering","Y","31"
"","2813","same-different-html","95","785595","0.0-3.0-92.0","","1519-2","""rash""","""mucha.wav""","191","rash","NAdj","same","1","T","rash","Y","32"
"","2819","same-different-html","96","791417","0.0-3.0-93.0","","1519-2","""rash""","""hara.wav""","90","suspenseful","SRI","different","1","D","rash","Y","33"
"","2845","same-different-html","97","797266","0.0-3.0-94.0","","1519-2","""exact""","""mucha.wav""","90","rash","NAdj","different","1","D","exact","Y","34"
"","2899","same-different-html","98","803170","0.0-3.0-95.0","","1519-2","""glossy""","""zuke.wav""","191","rude","SRI","different","0","D","glossy","Y","35"
"","2788","same-different-html","99","808962","0.0-3.0-96.0","","1519-2","""messy""","""gochagocha.wav""","191","messy","RI","same","1","T","messy","Y","36"
"","2812","same-different-html","100","814777","0.0-3.0-97.0","","1519-2","""careful""","""jikkurijikkuri.wav""","191","careful","RNRI","same","1","T","careful","Y","37"
"","2844","same-different-html","101","820626","0.0-3.0-98.0","","1519-2","""glossy""","""tsuya.wav""","90","glossy","SRI","same","0","T","glossy","Y","38"
"","2803","same-different-html","102","826433","0.0-3.0-99.0","","1519-2","""fast asleep""","""gussurigussuri.wav""","90","fast asleep","RNRI","same","0","T","fast asleep","Y","39"
"","2813","same-different-html","103","832249","0.0-3.0-100.0","","1519-2","""humid""","""mushi.wav""","191","humid","SRI","same","1","T","humid","Y","40"
"","2787","same-different-html","104","838041","0.0-3.0-101.0","","1519-2","""deficient""","""tsuya.wav""","90","glossy","SRI","different","1","D","deficient","Y","41"
"","2819","same-different-html","105","843866","0.0-3.0-102.0","","1519-2","""beneficial""","""kachinkachin.wav""","90","offended","RNRI","different","1","D","beneficial","Y","42"
"","2835","same-different-html","106","849704","0.0-3.0-103.0","","1519-2","""stupid""","""baka.wav""","191","stupid","NAdj","same","1","T","stupid","Y","43"
"","2940","same-different-html","107","855648","0.0-3.0-104.0","","1519-2","""pure""","""muku.wav""","191","pure","NAdj","same","1","T","pure","Y","44"
"","2804","same-different-html","108","861457","0.0-3.0-105.0","","1519-2","""gaping""","""poka.wav""","191","gaping","NRI","same","1","T","gaping","Y","45"
"","2827","same-different-html","109","867289","0.0-3.0-106.0","","1519-2","""whispering""","""tokutoku.wav""","90","beneficial","RNAdj","different","1","D","whispering","Y","46"
"","2859","same-different-html","110","873152","0.0-3.0-107.0","","1519-2","""careful""","""kakkirikakkiri.wav""","191","exact","RNRI","different","0","D","careful","Y","47"
"","2804","same-different-html","111","878960","0.0-3.0-108.0","","1519-2","""gaping""","""boroboro.wav""","90","worn out","RI","different","1","D","gaping","Y","48"
"[{""page_index"":0,""viewing_time"":33134}]","33134","instructions","112","913096","0.0-3.0-109.0","","","","","","","","","","","","",""
