"view_history","rt","trial_type","trial_index","time_elapsed","internal_node_id","responses","Id","word","sound","key_press","TrueMeaning","WordType","answer","correct","TrialType","TargetMeaning","LegalTrial","trialNum"
"[{""page_index"":0,""viewing_time"":247889}]","247890","instructions","0","247891","0.0-0.0","","","","","","","","","","","","",""
"[{""page_index"":0,""viewing_time"":3994},{""page_index"":1,""viewing_time"":2686},{""page_index"":2,""viewing_time"":2104},{""page_index"":3,""viewing_time"":1681},{""page_index"":4,""viewing_time"":22107}]","32572","instructions","1","280464","0.0-1.0","","","","","","","","","","","","",""
"","11806","survey-multi-choice","2","292283","0.0-2.0","{""Q0"":""Yes"",""Q1"":""Yes"",""Q2"":""Yes"",""Q3"":""Yes"",""Q4"":""Yes""}","","","","","","","","","","","",""
"[{""page_index"":0,""viewing_time"":1918},{""page_index"":1,""viewing_time"":2570}]","4488","instructions","3","296772","0.0-3.0-0.0","","","","","","","","","","","","",""
"","8443","same-different-html-trial","4","311231","0.0-3.0-1.0","","0","""sushi""","""prc_sushi.wav""","32","","","","","","","",""
"[{""page_index"":0,""viewing_time"":4859}]","4860","instructions","5","317092","0.0-3.0-2.0","","","","","","","","","","","","",""
"","14558","same-different-html","6","333656","0.0-3.0-3.0","","0","""sushi""","""prc_sushi.wav""","191","","","same","1","","","0",""
"[{""page_index"":0,""viewing_time"":4375}]","4375","instructions","7","339031","0.0-3.0-4.0","","","","","","","","","","","","",""
"","3795","same-different-html","8","344831","0.0-3.0-5.0","","0","""cat""","""prc_sushi.wav""","90","","","different","1","","","0",""
"[{""page_index"":0,""viewing_time"":3100},{""page_index"":1,""viewing_time"":1289}]","4390","instructions","9","350222","0.0-3.0-6.0","","","","","","","","","","","","",""
"","2429","same-different-html-trial","10","358659","0.0-3.0-7.0","","0","""thank you""","""prc_arigato.wav""","32","","","","","","","",""
"[{""page_index"":0,""viewing_time"":1982}]","1983","instructions","11","361643","0.0-3.0-8.0","","","","","","","","","","","","",""
"","4896","same-different-html","12","368544","0.0-3.0-9.0","","0","""thank you""","""prc_arigato.wav""","191","","","same","1","","","0",""
"","4487","same-different-html","13","376036","0.0-3.0-10.0","","0","""cat""","""prc_arigato.wav""","90","","","different","1","","","0",""
"[{""page_index"":0,""viewing_time"":2165},{""page_index"":1,""viewing_time"":3874}]","6040","instructions","14","383077","0.0-3.0-11.0","","","","","","","","","","","","",""
"","3318","same-different-html-trial","15","392404","0.0-3.0-12.0","","3478-7","""happy""","""uki.wav""","32","happy","SRI","","","","","","1"
"","700","same-different-html-trial","16","400113","0.0-3.0-13.0","","3478-7","""excessive""","""kadokado.wav""","32","excessive","RNAdj","","","","","","2"
"","1594","same-different-html-trial","17","409441","0.0-3.0-14.0","","3478-7","""useless""","""dame.wav""","32","useless","NAdj","","","","","","3"
"","3144","same-different-html-trial","18","419594","0.0-3.0-15.0","","3478-7","""rash""","""mucha.wav""","32","rash","NAdj","","","","","","4"
"","510","same-different-html-trial","19","427112","0.0-3.0-16.0","","3478-7","""shivering""","""buru.wav""","32","shivering","SRI","","","","","","5"
"","1266","same-different-html-trial","20","435387","0.0-3.0-17.0","","3478-7","""deficient""","""fubifubi.wav""","32","deficient","RNAdj","","","","","","6"
"","672","same-different-html-trial","21","443531","0.0-3.0-18.0","","3478-7","""clear""","""kukkiri.wav""","32","clear","NRI","","","","","","7"
"","425","same-different-html-trial","22","450963","0.0-3.0-19.0","","3478-7","""careful""","""jikkuri.wav""","32","careful","NRI","","","","","","8"
"","2966","same-different-html-trial","23","461824","0.0-3.0-20.0","","3478-7","""perfect""","""batchiri.wav""","32","perfect","NRI","","","","","","9"
"","596","same-different-html-trial","24","469428","0.0-3.0-21.0","","3478-7","""gaudy""","""kabi.wav""","32","gaudy","NAdj","","","","","","10"
"","576","same-different-html-trial","25","477012","0.0-3.0-22.0","","3478-7","""comfortable""","""rakuraku.wav""","32","comfortable","RNAdj","","","","","","11"
"","1599","same-different-html-trial","26","485620","0.0-3.0-23.0","","3478-7","""suspenseful""","""harahara.wav""","32","suspenseful","RI","","","","","","12"
"","139","same-different-html-trial","27","492767","0.0-3.0-24.0","","3478-7","""agitated""","""hiku.wav""","32","agitated","SRI","","","","","","13"
"","82","same-different-html-trial","28","499858","0.0-3.0-25.0","","3478-7","""hesitant""","""mojimoji.wav""","32","hesitant","RI","","","","","","14"
"","291","same-different-html-trial","29","507157","0.0-3.0-26.0","","3478-7","""wobbly""","""yura.wav""","32","wobbly","SRI","","","","","","15"
"","9","same-different-html-trial","30","514175","0.0-3.0-27.0","","3478-7","""gaping""","""pokapoka.wav""","32","gaping","RNRI","","","","","","16"
"","2040","same-different-html-trial","31","523224","0.0-3.0-28.0","","3478-7","""crowded""","""bisshiribisshiri.wav""","32","crowded","RNRI","","","","","","17"
"","2747","same-different-html-trial","32","532978","0.0-3.0-29.0","","3478-7","""sturdy""","""gashigashi.wav""","32","sturdy","RNRI","","","","","","18"
"","2308","same-different-html-trial","33","543171","0.0-3.0-30.0","","3478-7","""vulgar""","""zokuzoku.wav""","32","vulgar","RNAdj","","","","","","19"
"","675","same-different-html-trial","34","551289","0.0-3.0-31.0","","3478-7","""subdued""","""jimi.wav""","32","subdued","NAdj","","","","","","20"
"","244","same-different-html-trial","35","558541","0.0-3.0-32.0","","3478-7","""noisy""","""gayagaya.wav""","32","noisy","RI","","","","","","21"
"","285","same-different-html-trial","36","565832","0.0-3.0-33.0","","3478-7","""whole""","""goso.wav""","32","whole","NRI","","","","","","22"
"","1212","same-different-html-trial","37","574070","0.0-3.0-34.0","","3478-7","""rude""","""zukezuke.wav""","32","rude","RI","","","","","","23"
"","1642","same-different-html-trial","38","582721","0.0-3.0-35.0","","3478-7","""fast asleep""","""gussurigussuri.wav""","32","fast asleep","RNRI","","","","","","24"
"","637","same-different-html-trial","39","590367","0.0-3.0-36.0","","3478-7","""useless""","""dame.wav""","32","useless","NAdj","","","","","","25"
"","357","same-different-html-trial","40","597733","0.0-3.0-37.0","","3478-7","""rash""","""mucha.wav""","32","rash","NAdj","","","","","","26"
"","26","same-different-html-trial","41","604767","0.0-3.0-38.0","","3478-7","""noisy""","""gayagaya.wav""","32","noisy","RI","","","","","","27"
"","1274","same-different-html-trial","42","613049","0.0-3.0-39.0","","3478-7","""deficient""","""fubifubi.wav""","32","deficient","RNAdj","","","","","","28"
"","1428","same-different-html-trial","43","621485","0.0-3.0-40.0","","3478-7","""perfect""","""batchiri.wav""","32","perfect","NRI","","","","","","29"
"","213","same-different-html-trial","44","628706","0.0-3.0-41.0","","3478-7","""hesitant""","""mojimoji.wav""","32","hesitant","RI","","","","","","30"
"","576","same-different-html-trial","45","636436","0.0-3.0-42.0","","3478-7","""suspenseful""","""harahara.wav""","32","suspenseful","RI","","","","","","31"
"","414","same-different-html-trial","46","643859","0.0-3.0-43.0","","3478-7","""fast asleep""","""gussurigussuri.wav""","32","fast asleep","RNRI","","","","","","32"
"","450","same-different-html-trial","47","651318","0.0-3.0-44.0","","3478-7","""agitated""","""hiku.wav""","32","agitated","SRI","","","","","","33"
"","317","same-different-html-trial","48","658642","0.0-3.0-45.0","","3478-7","""rude""","""zukezuke.wav""","32","rude","RI","","","","","","34"
"","298","same-different-html-trial","49","666160","0.0-3.0-46.0","","3478-7","""clear""","""kukkiri.wav""","32","clear","NRI","","","","","","35"
"","910","same-different-html-trial","50","674077","0.0-3.0-47.0","","3478-7","""careful""","""jikkuri.wav""","32","careful","NRI","","","","","","36"
"","345","same-different-html-trial","51","681430","0.0-3.0-48.0","","3478-7","""gaudy""","""kabi.wav""","32","gaudy","NAdj","","","","","","37"
"","393","same-different-html-trial","52","688834","0.0-3.0-49.0","","3478-7","""whole""","""goso.wav""","32","whole","NRI","","","","","","38"
"","428","same-different-html-trial","53","696269","0.0-3.0-50.0","","3478-7","""happy""","""uki.wav""","32","happy","SRI","","","","","","39"
"","300","same-different-html-trial","54","703578","0.0-3.0-51.0","","3478-7","""subdued""","""jimi.wav""","32","subdued","NAdj","","","","","","40"
"","287","same-different-html-trial","55","710875","0.0-3.0-52.0","","3478-7","""gaping""","""pokapoka.wav""","32","gaping","RNRI","","","","","","41"
"","301","same-different-html-trial","56","718184","0.0-3.0-53.0","","3478-7","""shivering""","""buru.wav""","32","shivering","SRI","","","","","","42"
"","247","same-different-html-trial","57","725440","0.0-3.0-54.0","","3478-7","""crowded""","""bisshiribisshiri.wav""","32","crowded","RNRI","","","","","","43"
"","1079","same-different-html-trial","58","734939","0.0-3.0-55.0","","3478-7","""excessive""","""kadokado.wav""","32","excessive","RNAdj","","","","","","44"
"","8199","same-different-html-trial","59","750147","0.0-3.0-56.0","","3478-7","""vulgar""","""zokuzoku.wav""","32","vulgar","RNAdj","","","","","","45"
"","2526","same-different-html-trial","60","760391","0.0-3.0-57.0","","3478-7","""comfortable""","""rakuraku.wav""","32","comfortable","RNAdj","","","","","","46"
"","913","same-different-html-trial","61","768311","0.0-3.0-58.0","","3478-7","""sturdy""","""gashigashi.wav""","32","sturdy","RNRI","","","","","","47"
"","456","same-different-html-trial","62","775776","0.0-3.0-59.0","","3478-7","""wobbly""","""yura.wav""","32","wobbly","SRI","","","","","","48"
"[{""page_index"":0,""viewing_time"":4270}]","4271","instructions","63","781048","0.0-3.0-60.0","","","","","","","","","","","","",""
"","3138","same-different-html","64","786190","0.0-3.0-61.0","","3478-7","""perfect""","""uki.wav""","90","happy","SRI","different","1","D","perfect","Y","1"
"","2778","same-different-html","65","791972","0.0-3.0-62.0","","3478-7","""deficient""","""rakuraku.wav""","191","comfortable","RNAdj","different","0","D","deficient","Y","2"
"","3126","same-different-html","66","798103","0.0-3.0-63.0","","3478-7","""useless""","""goso.wav""","90","whole","NRI","different","1","D","useless","Y","3"
"","2882","same-different-html","67","803991","0.0-3.0-64.0","","3478-7","""whole""","""harahara.wav""","90","suspenseful","RI","different","1","D","whole","Y","4"
"","2121","same-different-html","68","809117","0.0-3.0-65.0","","3478-7","""vulgar""","""zokuzoku.wav""","90","vulgar","RNAdj","same","0","T","vulgar","Y","5"
"","2940","same-different-html","69","815065","0.0-3.0-66.0","","3478-7","""careful""","""kukkiri.wav""","191","clear","NRI","different","0","D","careful","Y","6"
"","2340","same-different-html","70","820411","0.0-3.0-67.0","","3478-7","""happy""","""uki.wav""","191","happy","SRI","same","1","T","happy","Y","7"
"","649","same-different-html","71","824065","0.0-3.0-68.0","","3478-7","""crowded""","""bisshiribisshiri.wav""","191","crowded","RNRI","same","1","T","crowded","Y","8"
"","345","same-different-html","72","827415","0.0-3.0-69.0","","3478-7","""comfortable""","""yura.wav""","90","wobbly","SRI","different","1","D","comfortable","Y","9"
"","275","same-different-html","73","830697","0.0-3.0-70.0","","3478-7","""suspenseful""","""harahara.wav""","90","suspenseful","RI","same","0","T","suspenseful","Y","10"
"","405","same-different-html","74","834107","0.0-3.0-71.0","","3478-7","""happy""","""pokapoka.wav""","90","gaping","RNRI","different","1","D","happy","Y","11"
"","325","same-different-html","75","837436","0.0-3.0-72.0","","3478-7","""deficient""","""fubifubi.wav""","191","deficient","RNAdj","same","1","T","deficient","Y","12"
"","805","same-different-html","76","841245","0.0-3.0-73.0","","3478-7","""useless""","""dame.wav""","191","useless","NAdj","same","1","T","useless","Y","13"
"","301","same-different-html","77","844550","0.0-3.0-74.0","","3478-7","""noisy""","""gayagaya.wav""","191","noisy","RI","same","1","T","noisy","Y","14"
"","226","same-different-html","78","847780","0.0-3.0-75.0","","3478-7","""sturdy""","""kadokado.wav""","90","excessive","RNAdj","different","1","D","sturdy","Y","15"
"","259","same-different-html","79","851045","0.0-3.0-76.0","","3478-7","""agitated""","""hiku.wav""","90","agitated","SRI","same","0","T","agitated","Y","16"
"","256","same-different-html","80","854305","0.0-3.0-77.0","","3478-7","""hesitant""","""mojimoji.wav""","191","hesitant","RI","same","1","T","hesitant","Y","17"
"","315","same-different-html","81","857626","0.0-3.0-78.0","","3478-7","""sturdy""","""gashigashi.wav""","191","sturdy","RNRI","same","1","T","sturdy","Y","18"
"","321","same-different-html","82","860952","0.0-3.0-79.0","","3478-7","""gaudy""","""kabi.wav""","191","gaudy","NAdj","same","1","T","gaudy","Y","19"
"","481","same-different-html","83","864438","0.0-3.0-80.0","","3478-7","""gaping""","""pokapoka.wav""","90","gaping","RNRI","same","0","T","gaping","Y","20"
"","490","same-different-html","84","867934","0.0-3.0-81.0","","3478-7","""subdued""","""jimi.wav""","90","subdued","NAdj","same","0","T","subdued","Y","21"
"","258","same-different-html","85","871197","0.0-3.0-82.0","","3478-7","""hesitant""","""bisshiribisshiri.wav""","191","crowded","RNRI","different","0","D","hesitant","Y","22"
"","257","same-different-html","86","874459","0.0-3.0-83.0","","3478-7","""subdued""","""zukezuke.wav""","191","rude","RI","different","0","D","subdued","Y","23"
"","269","same-different-html","87","877733","0.0-3.0-84.0","","3478-7","""comfortable""","""rakuraku.wav""","191","comfortable","RNAdj","same","1","T","comfortable","Y","24"
"","446","same-different-html","88","881184","0.0-3.0-85.0","","3478-7","""excessive""","""zokuzoku.wav""","191","vulgar","RNAdj","different","0","D","excessive","Y","25"
"","351","same-different-html","89","884540","0.0-3.0-86.0","","3478-7","""gaping""","""buru.wav""","90","shivering","SRI","different","1","D","gaping","Y","26"
"","359","same-different-html","90","887903","0.0-3.0-87.0","","3478-7","""crowded""","""jikkuri.wav""","90","careful","NRI","different","1","D","crowded","Y","27"
"","566","same-different-html","91","891474","0.0-3.0-88.0","","3478-7","""vulgar""","""gussurigussuri.wav""","191","fast asleep","RNRI","different","0","D","vulgar","Y","28"
"","252","same-different-html","92","894729","0.0-3.0-89.0","","3478-7","""clear""","""kukkiri.wav""","90","clear","NRI","same","0","T","clear","Y","29"
"","1800","same-different-html","93","899535","0.0-3.0-90.0","","3478-7","""fast asleep""","""gussurigussuri.wav""","191","fast asleep","RNRI","same","1","T","fast asleep","Y","30"
"","589","same-different-html","94","903129","0.0-3.0-91.0","","3478-7","""clear""","""hiku.wav""","191","agitated","SRI","different","0","D","clear","Y","31"
"","252","same-different-html","95","906384","0.0-3.0-92.0","","3478-7","""gaudy""","""gashigashi.wav""","191","sturdy","RNRI","different","0","D","gaudy","Y","32"
"","341","same-different-html","96","909731","0.0-3.0-93.0","","3478-7","""suspenseful""","""fubifubi.wav""","90","deficient","RNAdj","different","1","D","suspenseful","Y","33"
"","230","same-different-html","97","912965","0.0-3.0-94.0","","3478-7","""fast asleep""","""jimi.wav""","90","subdued","NAdj","different","1","D","fast asleep","Y","34"
"","1047","same-different-html","98","917016","0.0-3.0-95.0","","3478-7","""rash""","""mucha.wav""","191","rash","NAdj","same","1","T","rash","Y","35"
"","771","same-different-html","99","921166","0.0-3.0-96.0","","3478-7","""wobbly""","""mucha.wav""","90","rash","NAdj","different","1","D","wobbly","Y","36"
"","73","same-different-html","100","924245","0.0-3.0-97.0","","3478-7","""noisy""","""dame.wav""","191","useless","NAdj","different","0","D","noisy","Y","37"
"","0","same-different-html","101","927249","0.0-3.0-98.0","","3478-7","""whole""","""goso.wav""","191","whole","NRI","same","1","T","whole","Y","38"
"","26","same-different-html","102","930280","0.0-3.0-99.0","","3478-7","""careful""","""jikkuri.wav""","191","careful","NRI","same","1","T","careful","Y","39"
"","7529","same-different-html","103","941388","0.0-3.0-100.0","","3478-7","""rash""","""kabi.wav""","90","gaudy","NAdj","different","1","D","rash","Y","40"
"","66","same-different-html","104","944456","0.0-3.0-101.0","","3478-7","""shivering""","""buru.wav""","90","shivering","SRI","same","0","T","shivering","Y","41"
"","15","same-different-html","105","947476","0.0-3.0-102.0","","3478-7","""perfect""","""batchiri.wav""","90","perfect","NRI","same","0","T","perfect","Y","42"
"","42","same-different-html","106","950523","0.0-3.0-103.0","","3478-7","""rude""","""gayagaya.wav""","90","noisy","RI","different","1","D","rude","Y","43"
"","117","same-different-html","107","953644","0.0-3.0-104.0","","3478-7","""rude""","""zukezuke.wav""","191","rude","RI","same","1","T","rude","Y","44"
"","18","same-different-html","108","956666","0.0-3.0-105.0","","3478-7","""shivering""","""batchiri.wav""","90","perfect","NRI","different","1","D","shivering","Y","45"
"","19","same-different-html","109","959690","0.0-3.0-106.0","","3478-7","""wobbly""","""yura.wav""","90","wobbly","SRI","same","0","T","wobbly","Y","46"
"","34","same-different-html","110","962730","0.0-3.0-107.0","","3478-7","""excessive""","""kadokado.wav""","90","excessive","RNAdj","same","0","T","excessive","Y","47"
"","15","same-different-html","111","965749","0.0-3.0-108.0","","3478-7","""agitated""","""mojimoji.wav""","90","hesitant","RI","different","1","D","agitated","Y","48"
"[{""page_index"":0,""viewing_time"":3947}]","3947","instructions","112","970696","0.0-3.0-109.0","","","","","","","","","","","","",""
