"view_history","rt","trial_type","trial_index","time_elapsed","internal_node_id","responses","Id","word","sound","key_press","TrueMeaning","WordType","answer","correct","TrialType","TargetMeaning","LegalTrial","trialNum"
"[{""page_index"":0,""viewing_time"":7801}]","7804","instructions","0","7811","0.0-0.0","","","","","","","","","","","","",""
"[{""page_index"":0,""viewing_time"":4364},{""page_index"":1,""viewing_time"":10988},{""page_index"":2,""viewing_time"":12696},{""page_index"":3,""viewing_time"":4673},{""page_index"":4,""viewing_time"":86360}]","119082","instructions","1","126897","0.0-1.0","","","","","","","","","","","","",""
"","19152","survey-multi-choice","2","146071","0.0-2.0","{""Q0"":""Yes"",""Q1"":""Yes"",""Q2"":""Yes"",""Q3"":""Yes"",""Q4"":""Yes""}","","","","","","","","","","","",""
"[{""page_index"":0,""viewing_time"":4954},{""page_index"":1,""viewing_time"":10633}]","15590","instructions","3","161664","0.0-3.0-0.0","","","","","","","","","","","","",""
"","3987","same-different-html-trial","4","171683","0.0-3.0-1.0","","0","""sushi""","""prc_sushi.wav""","32","","","","","","","",""
"[{""page_index"":0,""viewing_time"":8176}]","8178","instructions","5","180862","0.0-3.0-2.0","","","","","","","","","","","","",""
"","3492","same-different-html","6","186367","0.0-3.0-3.0","","0","""sushi""","""prc_sushi.wav""","191","","","same","1","","","0",""
"[{""page_index"":0,""viewing_time"":5316}]","5316","instructions","7","192685","0.0-3.0-4.0","","","","","","","","","","","","",""
"","2639","same-different-html","8","197338","0.0-3.0-5.0","","0","""cat""","""prc_sushi.wav""","90","","","different","1","","","0",""
"[{""page_index"":0,""viewing_time"":1860},{""page_index"":1,""viewing_time"":3701}]","5561","instructions","9","203914","0.0-3.0-6.0","","","","","","","","","","","","",""
"","2671","same-different-html-trial","10","212601","0.0-3.0-7.0","","0","""thank you""","""prc_arigato.wav""","32","","","","","","","",""
"[{""page_index"":0,""viewing_time"":7560}]","7562","instructions","11","221163","0.0-3.0-8.0","","","","","","","","","","","","",""
"","3475","same-different-html","12","226642","0.0-3.0-9.0","","0","""thank you""","""prc_arigato.wav""","191","","","same","1","","","0",""
"","1878","same-different-html","13","231528","0.0-3.0-10.0","","0","""cat""","""prc_arigato.wav""","90","","","different","1","","","0",""
"[{""page_index"":0,""viewing_time"":2606},{""page_index"":1,""viewing_time"":17620}]","20227","instructions","14","252757","0.0-3.0-11.0","","","","","","","","","","","","",""
"","2904","same-different-html-trial","15","261676","0.0-3.0-12.0","","6651-8","""crowded""","""bisshiri.wav""","32","crowded","NRI","","","","","","1"
"","4717","same-different-html-trial","16","273409","0.0-3.0-13.0","","6651-8","""offended""","""kachinkachin.wav""","32","offended","RNRI","","","","","","2"
"","4461","same-different-html-trial","17","284887","0.0-3.0-14.0","","6651-8","""decisive""","""pisha.wav""","32","decisive","NRI","","","","","","3"
"","3688","same-different-html-trial","18","295591","0.0-3.0-15.0","","6651-8","""smooth""","""nopperinopperi.wav""","32","smooth","RNRI","","","","","","4"
"","4401","same-different-html-trial","19","307012","0.0-3.0-16.0","","6651-8","""sudden""","""patapata.wav""","32","sudden","RNRI","","","","","","5"
"","3974","same-different-html-trial","20","318000","0.0-3.0-17.0","","6651-8","""tasteless""","""yaboyabo.wav""","32","tasteless","RNAdj","","","","","","6"
"","4037","same-different-html-trial","21","329058","0.0-3.0-18.0","","6651-8","""free""","""hima.wav""","32","free","NAdj","","","","","","7"
"","4918","same-different-html-trial","22","340992","0.0-3.0-19.0","","6651-8","""supple""","""shinnarishinnari.wav""","32","supple","RNRI","","","","","","8"
"","4657","same-different-html-trial","23","352665","0.0-3.0-20.0","","6651-8","""useless""","""damedame.wav""","32","useless","RNAdj","","","","","","9"
"","3470","same-different-html-trial","24","363157","0.0-3.0-21.0","","6651-8","""sullen""","""musu.wav""","32","sullen","NRI","","","","","","10"
"","4042","same-different-html-trial","25","374214","0.0-3.0-22.0","","6651-8","""fragile""","""yawayawa.wav""","32","fragile","RNAdj","","","","","","11"
"","3879","same-different-html-trial","26","385122","0.0-3.0-23.0","","6651-8","""shivering""","""buru.wav""","32","shivering","SRI","","","","","","12"
"","3790","same-different-html-trial","27","395926","0.0-3.0-24.0","","6651-8","""messy""","""gochagocha.wav""","32","messy","RI","","","","","","13"
"","7476","same-different-html-trial","28","410417","0.0-3.0-25.0","","6651-8","""rash""","""mucha.wav""","32","rash","NAdj","","","","","","14"
"","3143","same-different-html-trial","29","420581","0.0-3.0-26.0","","6651-8","""chatty""","""bera.wav""","32","chatty","SRI","","","","","","15"
"","5226","same-different-html-trial","30","432822","0.0-3.0-27.0","","6651-8","""chubby""","""buku.wav""","32","chubby","SRI","","","","","","16"
"","4584","same-different-html-trial","31","444422","0.0-3.0-28.0","","6651-8","""harsh""","""koku.wav""","32","harsh","NAdj","","","","","","17"
"","1573","same-different-html-trial","32","453011","0.0-3.0-29.0","","6651-8","""hesitant""","""mojimoji.wav""","32","hesitant","RI","","","","","","18"
"","4297","same-different-html-trial","33","464325","0.0-3.0-30.0","","6651-8","""sloppy""","""zatsu.wav""","32","sloppy","NAdj","","","","","","19"
"","1301","same-different-html-trial","34","472665","0.0-3.0-31.0","","6651-8","""worn out""","""boroboro.wav""","32","worn out","RI","","","","","","20"
"","1638","same-different-html-trial","35","481319","0.0-3.0-32.0","","6651-8","""pure""","""mukumuku.wav""","32","pure","RNAdj","","","","","","21"
"","1624","same-different-html-trial","36","489952","0.0-3.0-33.0","","6651-8","""hasty""","""seka.wav""","32","hasty","SRI","","","","","","22"
"","2734","same-different-html-trial","37","499748","0.0-3.0-34.0","","6651-8","""whispering""","""hisohiso.wav""","32","whispering","RI","","","","","","23"
"","1536","same-different-html-trial","38","508303","0.0-3.0-35.0","","6651-8","""careful""","""jikkuri.wav""","32","careful","NRI","","","","","","24"
"","2479","same-different-html-trial","39","517795","0.0-3.0-36.0","","6651-8","""supple""","""shinnarishinnari.wav""","32","supple","RNRI","","","","","","25"
"","176","same-different-html-trial","40","524986","0.0-3.0-37.0","","6651-8","""offended""","""kachinkachin.wav""","32","offended","RNRI","","","","","","26"
"","4667","same-different-html-trial","41","536667","0.0-3.0-38.0","","6651-8","""smooth""","""nopperinopperi.wav""","32","smooth","RNRI","","","","","","27"
"","2705","same-different-html-trial","42","546387","0.0-3.0-39.0","","6651-8","""pure""","""mukumuku.wav""","32","pure","RNAdj","","","","","","28"
"","1559","same-different-html-trial","43","554966","0.0-3.0-40.0","","6651-8","""tasteless""","""yaboyabo.wav""","32","tasteless","RNAdj","","","","","","29"
"","913","same-different-html-trial","44","562894","0.0-3.0-41.0","","6651-8","""messy""","""gochagocha.wav""","32","messy","RI","","","","","","30"
"","2556","same-different-html-trial","45","572464","0.0-3.0-42.0","","6651-8","""worn out""","""boroboro.wav""","32","worn out","RI","","","","","","31"
"","1179","same-different-html-trial","46","580660","0.0-3.0-43.0","","6651-8","""shivering""","""buru.wav""","32","shivering","SRI","","","","","","32"
"","1450","same-different-html-trial","47","589132","0.0-3.0-44.0","","6651-8","""whispering""","""hisohiso.wav""","32","whispering","RI","","","","","","33"
"","1793","same-different-html-trial","48","597939","0.0-3.0-45.0","","6651-8","""fragile""","""yawayawa.wav""","32","fragile","RNAdj","","","","","","34"
"","1667","same-different-html-trial","49","606619","0.0-3.0-46.0","","6651-8","""chubby""","""buku.wav""","32","chubby","SRI","","","","","","35"
"","1274","same-different-html-trial","50","614945","0.0-3.0-47.0","","6651-8","""sloppy""","""zatsu.wav""","32","sloppy","NAdj","","","","","","36"
"","1633","same-different-html-trial","51","623606","0.0-3.0-48.0","","6651-8","""crowded""","""bisshiri.wav""","32","crowded","NRI","","","","","","37"
"","1262","same-different-html-trial","52","631885","0.0-3.0-49.0","","6651-8","""useless""","""damedame.wav""","32","useless","RNAdj","","","","","","38"
"","4369","same-different-html-trial","53","643277","0.0-3.0-50.0","","6651-8","""rash""","""mucha.wav""","32","rash","NAdj","","","","","","39"
"","1545","same-different-html-trial","54","651839","0.0-3.0-51.0","","6651-8","""sudden""","""patapata.wav""","32","sudden","RNRI","","","","","","40"
"","5689","same-different-html-trial","55","664547","0.0-3.0-52.0","","6651-8","""harsh""","""koku.wav""","32","harsh","NAdj","","","","","","41"
"","3070","same-different-html-trial","56","674663","0.0-3.0-53.0","","6651-8","""sullen""","""musu.wav""","32","sullen","NRI","","","","","","42"
"","4802","same-different-html-trial","57","686479","0.0-3.0-54.0","","6651-8","""hesitant""","""mojimoji.wav""","32","hesitant","RI","","","","","","43"
"","1623","same-different-html-trial","58","695130","0.0-3.0-55.0","","6651-8","""hasty""","""seka.wav""","32","hasty","SRI","","","","","","44"
"","3853","same-different-html-trial","59","705997","0.0-3.0-56.0","","6651-8","""careful""","""jikkuri.wav""","32","careful","NRI","","","","","","45"
"","2408","same-different-html-trial","60","715427","0.0-3.0-57.0","","6651-8","""decisive""","""pisha.wav""","32","decisive","NRI","","","","","","46"
"","4234","same-different-html-trial","61","726675","0.0-3.0-58.0","","6651-8","""free""","""hima.wav""","32","free","NAdj","","","","","","47"
"","1346","same-different-html-trial","62","735061","0.0-3.0-59.0","","6651-8","""chatty""","""bera.wav""","32","chatty","SRI","","","","","","48"
"[{""page_index"":0,""viewing_time"":22071}]","22072","instructions","63","758134","0.0-3.0-60.0","","","","","","","","","","","","",""
"","1980","same-different-html","64","762122","0.0-3.0-61.0","","6651-8","""harsh""","""koku.wav""","191","harsh","NAdj","same","1","T","harsh","Y","1"
"","1280","same-different-html","65","766410","0.0-3.0-62.0","","6651-8","""free""","""hima.wav""","191","free","NAdj","same","1","T","free","Y","2"
"","1603","same-different-html","66","771049","0.0-3.0-63.0","","6651-8","""smooth""","""hisohiso.wav""","191","whispering","RI","different","0","D","smooth","Y","3"
"","1228","same-different-html","67","775287","0.0-3.0-64.0","","6651-8","""sullen""","""koku.wav""","191","harsh","NAdj","different","0","D","sullen","Y","4"
"","1230","same-different-html","68","779528","0.0-3.0-65.0","","6651-8","""tasteless""","""yaboyabo.wav""","191","tasteless","RNAdj","same","1","T","tasteless","Y","5"
"","1139","same-different-html","69","783737","0.0-3.0-66.0","","6651-8","""whispering""","""musu.wav""","191","sullen","NRI","different","0","D","whispering","Y","6"
"","1176","same-different-html","70","787926","0.0-3.0-67.0","","6651-8","""messy""","""yaboyabo.wav""","191","tasteless","RNAdj","different","0","D","messy","Y","7"
"","1630","same-different-html","71","792590","0.0-3.0-68.0","","6651-8","""worn out""","""hima.wav""","191","free","NAdj","different","0","D","worn out","Y","8"
"","1601","same-different-html","72","797204","0.0-3.0-69.0","","6651-8","""messy""","""gochagocha.wav""","191","messy","RI","same","1","T","messy","Y","9"
"","1886","same-different-html","73","802095","0.0-3.0-70.0","","6651-8","""offended""","""kachinkachin.wav""","191","offended","RNRI","same","1","T","offended","Y","10"
"","2184","same-different-html","74","807293","0.0-3.0-71.0","","6651-8","""supple""","""shinnarishinnari.wav""","191","supple","RNRI","same","1","T","supple","Y","11"
"","1883","same-different-html","75","812183","0.0-3.0-72.0","","6651-8","""fragile""","""jikkuri.wav""","191","careful","NRI","different","0","D","fragile","Y","12"
"","1392","same-different-html","76","816584","0.0-3.0-73.0","","6651-8","""decisive""","""pisha.wav""","191","decisive","NRI","same","1","T","decisive","Y","13"
"","1801","same-different-html","77","821390","0.0-3.0-74.0","","6651-8","""chatty""","""nopperinopperi.wav""","191","smooth","RNRI","different","0","D","chatty","Y","14"
"","2063","same-different-html","78","826467","0.0-3.0-75.0","","6651-8","""supple""","""bisshiri.wav""","191","crowded","NRI","different","0","D","supple","Y","15"
"","1252","same-different-html","79","830734","0.0-3.0-76.0","","6651-8","""offended""","""mucha.wav""","191","rash","NAdj","different","0","D","offended","Y","16"
"","1230","same-different-html","80","834975","0.0-3.0-77.0","","6651-8","""crowded""","""buku.wav""","191","chubby","SRI","different","0","D","crowded","Y","17"
"","1100","same-different-html","81","839086","0.0-3.0-78.0","","6651-8","""sudden""","""yawayawa.wav""","191","fragile","RNAdj","different","0","D","sudden","Y","18"
"","1275","same-different-html","82","843391","0.0-3.0-79.0","","6651-8","""hasty""","""mojimoji.wav""","191","hesitant","RI","different","0","D","hasty","Y","19"
"","1292","same-different-html","83","847697","0.0-3.0-80.0","","6651-8","""fragile""","""yawayawa.wav""","191","fragile","RNAdj","same","1","T","fragile","Y","20"
"","1643","same-different-html","84","852348","0.0-3.0-81.0","","6651-8","""shivering""","""gochagocha.wav""","191","messy","RI","different","0","D","shivering","Y","21"
"","1618","same-different-html","85","857024","0.0-3.0-82.0","","6651-8","""pure""","""mukumuku.wav""","191","pure","RNAdj","same","1","T","pure","Y","22"
"","1430","same-different-html","86","861462","0.0-3.0-83.0","","6651-8","""pure""","""seka.wav""","191","hasty","SRI","different","0","D","pure","Y","23"
"","1232","same-different-html","87","865700","0.0-3.0-84.0","","6651-8","""chatty""","""bera.wav""","191","chatty","SRI","same","1","T","chatty","Y","24"
"","1195","same-different-html","88","869907","0.0-3.0-85.0","","6651-8","""harsh""","""kachinkachin.wav""","191","offended","RNRI","different","0","D","harsh","Y","25"
"","3673","same-different-html","89","876586","0.0-3.0-86.0","","6651-8","""chubby""","""buku.wav""","191","chubby","SRI","same","1","T","chubby","Y","26"
"","1080","same-different-html","90","880698","0.0-3.0-87.0","","6651-8","""worn out""","""boroboro.wav""","191","worn out","RI","same","1","T","worn out","Y","27"
"","1959","same-different-html","91","885663","0.0-3.0-88.0","","6651-8","""shivering""","""buru.wav""","191","shivering","SRI","same","1","T","shivering","Y","28"
"","1487","same-different-html","92","890157","0.0-3.0-89.0","","6651-8","""hesitant""","""damedame.wav""","191","useless","RNAdj","different","0","D","hesitant","Y","29"
"","1469","same-different-html","93","894638","0.0-3.0-90.0","","6651-8","""free""","""patapata.wav""","191","sudden","RNRI","different","0","D","free","Y","30"
"","1686","same-different-html","94","899331","0.0-3.0-91.0","","6651-8","""rash""","""bera.wav""","191","chatty","SRI","different","0","D","rash","Y","31"
"","2131","same-different-html","95","904477","0.0-3.0-92.0","","6651-8","""useless""","""damedame.wav""","191","useless","RNAdj","same","1","T","useless","Y","32"
"","2036","same-different-html","96","909523","0.0-3.0-93.0","","6651-8","""chubby""","""shinnarishinnari.wav""","191","supple","RNRI","different","0","D","chubby","Y","33"
"","2300","same-different-html","97","914839","0.0-3.0-94.0","","6651-8","""decisive""","""boroboro.wav""","191","worn out","RI","different","0","D","decisive","Y","34"
"","1385","same-different-html","98","919236","0.0-3.0-95.0","","6651-8","""hasty""","""seka.wav""","191","hasty","SRI","same","1","T","hasty","Y","35"
"","1948","same-different-html","99","924191","0.0-3.0-96.0","","6651-8","""hesitant""","""mojimoji.wav""","191","hesitant","RI","same","1","T","hesitant","Y","36"
"","1671","same-different-html","100","928869","0.0-3.0-97.0","","6651-8","""careful""","""jikkuri.wav""","191","careful","NRI","same","1","T","careful","Y","37"
"","3409","same-different-html","101","935289","0.0-3.0-98.0","","6651-8","""sloppy""","""zatsu.wav""","191","sloppy","NAdj","same","1","T","sloppy","Y","38"
"","1197","same-different-html","102","939498","0.0-3.0-99.0","","6651-8","""rash""","""mucha.wav""","191","rash","NAdj","same","1","T","rash","Y","39"
"","1325","same-different-html","103","943830","0.0-3.0-100.0","","6651-8","""careful""","""zatsu.wav""","191","sloppy","NAdj","different","0","D","careful","Y","40"
"","1172","same-different-html","104","948009","0.0-3.0-101.0","","6651-8","""sullen""","""musu.wav""","191","sullen","NRI","same","1","T","sullen","Y","41"
"","1512","same-different-html","105","952532","0.0-3.0-102.0","","6651-8","""whispering""","""hisohiso.wav""","191","whispering","RI","same","1","T","whispering","Y","42"
"","1658","same-different-html","106","957207","0.0-3.0-103.0","","6651-8","""tasteless""","""mukumuku.wav""","191","pure","RNAdj","different","0","D","tasteless","Y","43"
"","1974","same-different-html","107","962192","0.0-3.0-104.0","","6651-8","""sloppy""","""pisha.wav""","90","decisive","NRI","different","1","D","sloppy","Y","44"
"","3271","same-different-html","108","968474","0.0-3.0-105.0","","6651-8","""smooth""","""nopperinopperi.wav""","191","smooth","RNRI","same","1","T","smooth","Y","45"
"","1517","same-different-html","109","973000","0.0-3.0-106.0","","6651-8","""crowded""","""bisshiri.wav""","90","crowded","NRI","same","0","T","crowded","Y","46"
"","1235","same-different-html","110","977243","0.0-3.0-107.0","","6651-8","""useless""","""buru.wav""","191","shivering","SRI","different","0","D","useless","Y","47"
"","1415","same-different-html","111","981670","0.0-3.0-108.0","","6651-8","""sudden""","""patapata.wav""","191","sudden","RNRI","same","1","T","sudden","Y","48"
"[{""page_index"":0,""viewing_time"":13754}]","13755","instructions","112","996426","0.0-3.0-109.0","","","","","","","","","","","","",""
