"view_history","rt","trial_type","trial_index","time_elapsed","internal_node_id","responses","Id","word","sound","key_press","TrueMeaning","WordType","answer","correct","TrialType","TargetMeaning","LegalTrial","trialNum"
"[{""page_index"":0,""viewing_time"":20163}]","20164","instructions","0","20165","0.0-0.0","","","","","","","","","","","","",""
"[{""page_index"":0,""viewing_time"":2152},{""page_index"":1,""viewing_time"":2774},{""page_index"":2,""viewing_time"":1770},{""page_index"":3,""viewing_time"":5572},{""page_index"":4,""viewing_time"":97816}]","110085","instructions","1","130251","0.0-1.0","","","","","","","","","","","","",""
"","9340","survey-multi-choice","2","139596","0.0-2.0","{""Q0"":""Yes"",""Q1"":""Yes"",""Q2"":""Yes"",""Q3"":""Yes"",""Q4"":""Yes""}","","","","","","","","","","","",""
"[{""page_index"":0,""viewing_time"":1083},{""page_index"":1,""viewing_time"":2459}]","3542","instructions","3","143138","0.0-3.0-0.0","","","","","","","","","","","","",""
"","3177","same-different-html-trial","4","152328","0.0-3.0-1.0","","0","""sushi""","""prc_sushi.wav""","32","","","","","","","",""
"[{""page_index"":0,""viewing_time"":15007}]","15007","instructions","5","168335","0.0-3.0-2.0","","","","","","","","","","","","",""
"","5385","same-different-html","6","175726","0.0-3.0-3.0","","0","""sushi""","""prc_sushi.wav""","191","","","same","1","","","0",""
"[{""page_index"":0,""viewing_time"":3587}]","3587","instructions","7","180313","0.0-3.0-4.0","","","","","","","","","","","","",""
"","1385","same-different-html","8","183714","0.0-3.0-5.0","","0","""cat""","""prc_sushi.wav""","90","","","different","1","","","0",""
"[{""page_index"":0,""viewing_time"":3935},{""page_index"":1,""viewing_time"":1871}]","5806","instructions","9","190521","0.0-3.0-6.0","","","","","","","","","","","","",""
"","1986","same-different-html-trial","10","198513","0.0-3.0-7.0","","0","""thank you""","""prc_arigato.wav""","32","","","","","","","",""
"[{""page_index"":0,""viewing_time"":2790}]","2790","instructions","11","202317","0.0-3.0-8.0","","","","","","","","","","","","",""
"","1533","same-different-html","12","205858","0.0-3.0-9.0","","0","""thank you""","""prc_arigato.wav""","191","","","same","1","","","0",""
"","1329","same-different-html","13","210191","0.0-3.0-10.0","","0","""cat""","""prc_arigato.wav""","90","","","different","1","","","0",""
"[{""page_index"":0,""viewing_time"":20736},{""page_index"":1,""viewing_time"":10962}]","31698","instructions","14","242889","0.0-3.0-11.0","","","","","","","","","","","","",""
"","1575","same-different-html-trial","15","250472","0.0-3.0-12.0","","6477-8","""agitated""","""hikuhiku.wav""","32","agitated","RI","","","","","","1"
"","1271","same-different-html-trial","16","258756","0.0-3.0-13.0","","6477-8","""tasteless""","""yaboyabo.wav""","32","tasteless","RNAdj","","","","","","2"
"","764","same-different-html-trial","17","266546","0.0-3.0-14.0","","6477-8","""rash""","""mucha.wav""","32","rash","NAdj","","","","","","3"
"","1341","same-different-html-trial","18","274894","0.0-3.0-15.0","","6477-8","""comfortable""","""rakuraku.wav""","32","comfortable","RNAdj","","","","","","4"
"","453","same-different-html-trial","19","282354","0.0-3.0-16.0","","6477-8","""gaping""","""poka.wav""","32","gaping","NRI","","","","","","5"
"","500","same-different-html-trial","20","289867","0.0-3.0-17.0","","6477-8","""hasty""","""seka.wav""","32","hasty","SRI","","","","","","6"
"","2541","same-different-html-trial","21","299418","0.0-3.0-18.0","","6477-8","""chatty""","""berabera.wav""","32","chatty","RI","","","","","","7"
"","500","same-different-html-trial","22","306925","0.0-3.0-19.0","","6477-8","""vulgar""","""zoku.wav""","32","vulgar","NAdj","","","","","","8"
"","497","same-different-html-trial","23","314429","0.0-3.0-20.0","","6477-8","""steaming""","""hoka.wav""","32","steaming","SRI","","","","","","9"
"","459","same-different-html-trial","24","321896","0.0-3.0-21.0","","6477-8","""sudden""","""pata.wav""","32","sudden","NRI","","","","","","10"
"","557","same-different-html-trial","25","329473","0.0-3.0-22.0","","6477-8","""hesitant""","""moji.wav""","32","hesitant","SRI","","","","","","11"
"","392","same-different-html-trial","26","336911","0.0-3.0-23.0","","6477-8","""gaudy""","""kabi.wav""","32","gaudy","NAdj","","","","","","12"
"","2576","same-different-html-trial","27","346493","0.0-3.0-24.0","","6477-8","""clear""","""kukkirikukkiri.wav""","32","clear","RNRI","","","","","","13"
"","256","same-different-html-trial","28","353759","0.0-3.0-25.0","","6477-8","""chubby""","""bukubuku.wav""","32","chubby","RI","","","","","","14"
"","588","same-different-html-trial","29","361354","0.0-3.0-26.0","","6477-8","""subdued""","""jimi.wav""","32","subdued","NAdj","","","","","","15"
"","4632","same-different-html-trial","30","373004","0.0-3.0-27.0","","6477-8","""nonchalantly""","""kero.wav""","32","nonchalantly","NRI","","","","","","16"
"","884","same-different-html-trial","31","383460","0.0-3.0-28.0","","6477-8","""rare""","""maremare.wav""","32","rare","RNAdj","","","","","","17"
"","984","same-different-html-trial","32","391466","0.0-3.0-29.0","","6477-8","""resolute""","""bassaribassari.wav""","32","resolute","RNRI","","","","","","18"
"","393","same-different-html-trial","33","398866","0.0-3.0-30.0","","6477-8","""fat""","""debudebu.wav""","32","fat","RI","","","","","","19"
"","1149","same-different-html-trial","34","407023","0.0-3.0-31.0","","6477-8","""perfect""","""batchiri.wav""","32","perfect","NRI","","","","","","20"
"","380","same-different-html-trial","35","414413","0.0-3.0-32.0","","6477-8","""glossy""","""tsuya.wav""","32","glossy","SRI","","","","","","21"
"","735","same-different-html-trial","36","422154","0.0-3.0-33.0","","6477-8","""careful""","""jikkurijikkuri.wav""","32","careful","RNRI","","","","","","22"
"","2072","same-different-html-trial","37","431233","0.0-3.0-34.0","","6477-8","""fragile""","""yawayawa.wav""","32","fragile","RNAdj","","","","","","23"
"","2872","same-different-html-trial","38","441112","0.0-3.0-35.0","","6477-8","""decisive""","""pishapisha.wav""","32","decisive","RNRI","","","","","","24"
"","1408","same-different-html-trial","39","449527","0.0-3.0-36.0","","6477-8","""rare""","""maremare.wav""","32","rare","RNAdj","","","","","","25"
"","227","same-different-html-trial","40","456796","0.0-3.0-37.0","","6477-8","""hasty""","""seka.wav""","32","hasty","SRI","","","","","","26"
"","4262","same-different-html-trial","41","468074","0.0-3.0-38.0","","6477-8","""glossy""","""tsuya.wav""","32","glossy","SRI","","","","","","27"
"","571","same-different-html-trial","42","475657","0.0-3.0-39.0","","6477-8","""fragile""","""yawayawa.wav""","32","fragile","RNAdj","","","","","","28"
"","1810","same-different-html-trial","43","485392","0.0-3.0-40.0","","6477-8","""comfortable""","""rakuraku.wav""","32","comfortable","RNAdj","","","","","","29"
"","2281","same-different-html-trial","44","494683","0.0-3.0-41.0","","6477-8","""agitated""","""hikuhiku.wav""","32","agitated","RI","","","","","","30"
"","2171","same-different-html-trial","45","503861","0.0-3.0-42.0","","6477-8","""resolute""","""bassaribassari.wav""","32","resolute","RNRI","","","","","","31"
"","3236","same-different-html-trial","46","514105","0.0-3.0-43.0","","6477-8","""clear""","""kukkirikukkiri.wav""","32","clear","RNRI","","","","","","32"
"","2230","same-different-html-trial","47","523809","0.0-3.0-44.0","","6477-8","""careful""","""jikkurijikkuri.wav""","32","careful","RNRI","","","","","","33"
"","441","same-different-html-trial","48","532023","0.0-3.0-45.0","","6477-8","""gaping""","""poka.wav""","32","gaping","NRI","","","","","","34"
"","244","same-different-html-trial","49","539279","0.0-3.0-46.0","","6477-8","""hesitant""","""moji.wav""","32","hesitant","SRI","","","","","","35"
"","275","same-different-html-trial","50","546562","0.0-3.0-47.0","","6477-8","""sudden""","""pata.wav""","32","sudden","NRI","","","","","","36"
"","2124","same-different-html-trial","51","555694","0.0-3.0-48.0","","6477-8","""fat""","""debudebu.wav""","32","fat","RI","","","","","","37"
"","2026","same-different-html-trial","52","564728","0.0-3.0-49.0","","6477-8","""vulgar""","""zoku.wav""","32","vulgar","NAdj","","","","","","38"
"","204","same-different-html-trial","53","571942","0.0-3.0-50.0","","6477-8","""chatty""","""berabera.wav""","32","chatty","RI","","","","","","39"
"","193","same-different-html-trial","54","579143","0.0-3.0-51.0","","6477-8","""steaming""","""hoka.wav""","32","steaming","SRI","","","","","","40"
"","260","same-different-html-trial","55","586411","0.0-3.0-52.0","","6477-8","""nonchalantly""","""kero.wav""","32","nonchalantly","NRI","","","","","","41"
"","133","same-different-html-trial","56","593557","0.0-3.0-53.0","","6477-8","""decisive""","""pishapisha.wav""","32","decisive","RNRI","","","","","","42"
"","1181","same-different-html-trial","57","601747","0.0-3.0-54.0","","6477-8","""chubby""","""bukubuku.wav""","32","chubby","RI","","","","","","43"
"","1042","same-different-html-trial","58","609805","0.0-3.0-55.0","","6477-8","""subdued""","""jimi.wav""","32","subdued","NAdj","","","","","","44"
"","252","same-different-html-trial","59","617064","0.0-3.0-56.0","","6477-8","""rash""","""mucha.wav""","32","rash","NAdj","","","","","","45"
"","1591","same-different-html-trial","60","625663","0.0-3.0-57.0","","6477-8","""gaudy""","""kabi.wav""","32","gaudy","NAdj","","","","","","46"
"","239","same-different-html-trial","61","632909","0.0-3.0-58.0","","6477-8","""perfect""","""batchiri.wav""","32","perfect","NRI","","","","","","47"
"","3761","same-different-html-trial","62","645363","0.0-3.0-59.0","","6477-8","""tasteless""","""yaboyabo.wav""","32","tasteless","RNAdj","","","","","","48"
"[{""page_index"":0,""viewing_time"":7547}]","7547","instructions","63","653911","0.0-3.0-60.0","","","","","","","","","","","","",""
"","2664","same-different-html","64","658578","0.0-3.0-61.0","","6477-8","""subdued""","""zoku.wav""","191","vulgar","NAdj","different","0","D","subdued","Y","1"
"","1356","same-different-html","65","662939","0.0-3.0-62.0","","6477-8","""resolute""","""moji.wav""","90","hesitant","SRI","different","1","D","resolute","Y","2"
"","2907","same-different-html","66","668863","0.0-3.0-63.0","","6477-8","""fragile""","""kukkirikukkiri.wav""","90","clear","RNRI","different","1","D","fragile","Y","3"
"","2990","same-different-html","67","674875","0.0-3.0-64.0","","6477-8","""clear""","""berabera.wav""","191","chatty","RI","different","0","D","clear","Y","4"
"","3445","same-different-html","68","681330","0.0-3.0-65.0","","6477-8","""subdued""","""jimi.wav""","191","subdued","NAdj","same","1","T","subdued","Y","5"
"","3652","same-different-html","69","688011","0.0-3.0-66.0","","6477-8","""tasteless""","""yawayawa.wav""","90","fragile","RNAdj","different","1","D","tasteless","Y","6"
"","3104","same-different-html","70","694125","0.0-3.0-67.0","","6477-8","""gaudy""","""kabi.wav""","191","gaudy","NAdj","same","1","T","gaudy","Y","7"
"","2627","same-different-html","71","699758","0.0-3.0-68.0","","6477-8","""agitated""","""hikuhiku.wav""","90","agitated","RI","same","0","T","agitated","Y","8"
"","2033","same-different-html","72","704798","0.0-3.0-69.0","","6477-8","""sudden""","""pata.wav""","191","sudden","NRI","same","1","T","sudden","Y","9"
"","2577","same-different-html","73","710382","0.0-3.0-70.0","","6477-8","""comfortable""","""rakuraku.wav""","90","comfortable","RNAdj","same","0","T","comfortable","Y","10"
"","2561","same-different-html","74","715949","0.0-3.0-71.0","","6477-8","""hasty""","""seka.wav""","90","hasty","SRI","same","0","T","hasty","Y","11"
"","1248","same-different-html","75","720206","0.0-3.0-72.0","","6477-8","""hesitant""","""kabi.wav""","191","gaudy","NAdj","different","0","D","hesitant","Y","12"
"","2298","same-different-html","76","725510","0.0-3.0-73.0","","6477-8","""gaping""","""pishapisha.wav""","90","decisive","RNRI","different","1","D","gaping","Y","13"
"","12854","same-different-html","77","741429","0.0-3.0-74.0","","6477-8","""rare""","""maremare.wav""","90","rare","RNAdj","same","0","T","rare","Y","14"
"","2891","same-different-html","78","747327","0.0-3.0-75.0","","6477-8","""tasteless""","""yaboyabo.wav""","90","tasteless","RNAdj","same","0","T","tasteless","Y","15"
"","1726","same-different-html","79","752060","0.0-3.0-76.0","","6477-8","""steaming""","""hoka.wav""","191","steaming","SRI","same","1","T","steaming","Y","16"
"","1573","same-different-html","80","756640","0.0-3.0-77.0","","6477-8","""perfect""","""kero.wav""","90","nonchalantly","NRI","different","1","D","perfect","Y","17"
"","2161","same-different-html","81","761819","0.0-3.0-78.0","","6477-8","""fat""","""maremare.wav""","191","rare","RNAdj","different","0","D","fat","Y","18"
"","2661","same-different-html","82","767490","0.0-3.0-79.0","","6477-8","""decisive""","""pishapisha.wav""","191","decisive","RNRI","same","1","T","decisive","Y","19"
"","2380","same-different-html","83","772889","0.0-3.0-80.0","","6477-8","""resolute""","""bassaribassari.wav""","191","resolute","RNRI","same","1","T","resolute","Y","20"
"","2056","same-different-html","84","777953","0.0-3.0-81.0","","6477-8","""chatty""","""hoka.wav""","191","steaming","SRI","different","0","D","chatty","Y","21"
"","1891","same-different-html","85","782852","0.0-3.0-82.0","","6477-8","""steaming""","""tsuya.wav""","191","glossy","SRI","different","0","D","steaming","Y","22"
"","3282","same-different-html","86","789141","0.0-3.0-83.0","","6477-8","""fragile""","""yawayawa.wav""","90","fragile","RNAdj","same","0","T","fragile","Y","23"
"","1872","same-different-html","87","794019","0.0-3.0-84.0","","6477-8","""glossy""","""tsuya.wav""","191","glossy","SRI","same","1","T","glossy","Y","24"
"","1753","same-different-html","88","798779","0.0-3.0-85.0","","6477-8","""sudden""","""yaboyabo.wav""","90","tasteless","RNAdj","different","1","D","sudden","Y","25"
"","2556","same-different-html","89","804355","0.0-3.0-86.0","","6477-8","""agitated""","""debudebu.wav""","191","fat","RI","different","0","D","agitated","Y","26"
"","2171","same-different-html","90","809535","0.0-3.0-87.0","","6477-8","""perfect""","""batchiri.wav""","90","perfect","NRI","same","0","T","perfect","Y","27"
"","2282","same-different-html","91","814823","0.0-3.0-88.0","","6477-8","""chatty""","""berabera.wav""","191","chatty","RI","same","1","T","chatty","Y","28"
"","1382","same-different-html","92","819214","0.0-3.0-89.0","","6477-8","""nonchalantly""","""poka.wav""","90","gaping","NRI","different","1","D","nonchalantly","Y","29"
"","2749","same-different-html","93","825001","0.0-3.0-90.0","","6477-8","""rare""","""mucha.wav""","191","rash","NAdj","different","0","D","rare","Y","30"
"","3642","same-different-html","94","831650","0.0-3.0-91.0","","6477-8","""glossy""","""jikkurijikkuri.wav""","191","careful","RNRI","different","0","D","glossy","Y","31"
"","2284","same-different-html","95","836943","0.0-3.0-92.0","","6477-8","""careful""","""jikkurijikkuri.wav""","90","careful","RNRI","same","0","T","careful","Y","32"
"","1804","same-different-html","96","841755","0.0-3.0-93.0","","6477-8","""rash""","""rakuraku.wav""","191","comfortable","RNAdj","different","0","D","rash","Y","33"
"","2143","same-different-html","97","846908","0.0-3.0-94.0","","6477-8","""comfortable""","""batchiri.wav""","191","perfect","NRI","different","0","D","comfortable","Y","34"
"","1908","same-different-html","98","851823","0.0-3.0-95.0","","6477-8","""vulgar""","""hikuhiku.wav""","191","agitated","RI","different","0","D","vulgar","Y","35"
"","1823","same-different-html","99","856653","0.0-3.0-96.0","","6477-8","""chubby""","""bassaribassari.wav""","191","resolute","RNRI","different","0","D","chubby","Y","36"
"","1528","same-different-html","100","861189","0.0-3.0-97.0","","6477-8","""decisive""","""bukubuku.wav""","90","chubby","RI","different","1","D","decisive","Y","37"
"","2257","same-different-html","101","866451","0.0-3.0-98.0","","6477-8","""hasty""","""jimi.wav""","90","subdued","NAdj","different","1","D","hasty","Y","38"
"","4347","same-different-html","102","873806","0.0-3.0-99.0","","6477-8","""gaping""","""poka.wav""","191","gaping","NRI","same","1","T","gaping","Y","39"
"","2584","same-different-html","103","879398","0.0-3.0-100.0","","6477-8","""hesitant""","""moji.wav""","90","hesitant","SRI","same","0","T","hesitant","Y","40"
"","2436","same-different-html","104","884843","0.0-3.0-101.0","","6477-8","""nonchalantly""","""kero.wav""","90","nonchalantly","NRI","same","0","T","nonchalantly","Y","41"
"","3992","same-different-html","105","891841","0.0-3.0-102.0","","6477-8","""clear""","""kukkirikukkiri.wav""","90","clear","RNRI","same","0","T","clear","Y","42"
"","2472","same-different-html","106","897329","0.0-3.0-103.0","","6477-8","""chubby""","""bukubuku.wav""","191","chubby","RI","same","1","T","chubby","Y","43"
"","2446","same-different-html","107","902786","0.0-3.0-104.0","","6477-8","""fat""","""debudebu.wav""","90","fat","RI","same","0","T","fat","Y","44"
"","2085","same-different-html","108","907877","0.0-3.0-105.0","","6477-8","""rash""","""mucha.wav""","191","rash","NAdj","same","1","T","rash","Y","45"
"","2760","same-different-html","109","913643","0.0-3.0-106.0","","6477-8","""vulgar""","""zoku.wav""","191","vulgar","NAdj","same","1","T","vulgar","Y","46"
"","1774","same-different-html","110","918425","0.0-3.0-107.0","","6477-8","""careful""","""seka.wav""","90","hasty","SRI","different","1","D","careful","Y","47"
"","2802","same-different-html","111","924235","0.0-3.0-108.0","","6477-8","""gaudy""","""pata.wav""","90","sudden","NRI","different","1","D","gaudy","Y","48"
"[{""page_index"":0,""viewing_time"":10416}]","10416","instructions","112","935654","0.0-3.0-109.0","","","","","","","","","","","","",""
