"view_history","rt","trial_type","trial_index","time_elapsed","internal_node_id","responses","Id","word","sound","key_press","TrueMeaning","WordType","answer","correct","TrialType","TargetMeaning","LegalTrial","trialNum"
"[{""page_index"":0,""viewing_time"":2645}]","2645","instructions","0","2647","0.0-0.0","","","","","","","","","","","","",""
"[{""page_index"":0,""viewing_time"":12960},{""page_index"":1,""viewing_time"":3233},{""page_index"":2,""viewing_time"":4514},{""page_index"":3,""viewing_time"":2507},{""page_index"":4,""viewing_time"":30937}]","54153","instructions","1","56800","0.0-1.0","","","","","","","","","","","","",""
"","14195","survey-multi-choice","2","70998","0.0-2.0","{""Q0"":""Yes"",""Q1"":""Yes"",""Q2"":""Yes"",""Q3"":""Yes"",""Q4"":""Yes""}","","","","","","","","","","","",""
"[{""page_index"":0,""viewing_time"":1199},{""page_index"":1,""viewing_time"":5475}]","6674","instructions","3","77674","0.0-3.0-0.0","","","","","","","","","","","","",""
"","2605","same-different-html-trial","4","86283","0.0-3.0-1.0","","0","""sushi""","""prc_sushi.wav""","32","","","","","","","",""
"[{""page_index"":0,""viewing_time"":5517}]","5518","instructions","5","92801","0.0-3.0-2.0","","","","","","","","","","","","",""
"","1318","same-different-html","6","96119","0.0-3.0-3.0","","0","""sushi""","""prc_sushi.wav""","191","","","same","1","","","0",""
"[{""page_index"":0,""viewing_time"":2008}]","2008","instructions","7","99128","0.0-3.0-4.0","","","","","","","","","","","","",""
"","1824","same-different-html","8","102952","0.0-3.0-5.0","","0","""cat""","""prc_sushi.wav""","90","","","different","1","","","0",""
"[{""page_index"":0,""viewing_time"":976},{""page_index"":1,""viewing_time"":1596}]","2572","instructions","9","106524","0.0-3.0-6.0","","","","","","","","","","","","",""
"","1382","same-different-html-trial","10","113907","0.0-3.0-7.0","","0","""thank you""","""prc_arigato.wav""","32","","","","","","","",""
"[{""page_index"":0,""viewing_time"":939}]","939","instructions","11","115845","0.0-3.0-8.0","","","","","","","","","","","","",""
"","4155","same-different-html","12","122000","0.0-3.0-9.0","","0","""thank you""","""prc_arigato.wav""","191","","","same","1","","","0",""
"","2859","same-different-html","13","127859","0.0-3.0-10.0","","0","""cat""","""prc_arigato.wav""","90","","","different","1","","","0",""
"[{""page_index"":0,""viewing_time"":2336},{""page_index"":1,""viewing_time"":4537}]","6873","instructions","14","135732","0.0-3.0-11.0","","","","","","","","","","","","",""
"","1062","same-different-html-trial","15","142794","0.0-3.0-12.0","","451-7","""noisy""","""gayagaya.wav""","32","noisy","RI","","","","","","1"
"","1655","same-different-html-trial","16","151450","0.0-3.0-13.0","","451-7","""to change ocmpletely""","""garagara.wav""","32","to change ocmpletely","RNRI","","","","","","2"
"","1914","same-different-html-trial","17","160823","0.0-3.0-14.0","","451-7","""nonchalantly""","""kero.wav""","32","nonchalantly","NRI","","","","","","3"
"","2750","same-different-html-trial","18","170661","0.0-3.0-15.0","","451-7","""impossible""","""muri.wav""","32","impossible","NAdj","","","","","","4"
"","2284","same-different-html-trial","19","179945","0.0-3.0-16.0","","451-7","""plump""","""potcharipotchari.wav""","32","plump","RNRI","","","","","","5"
"","1651","same-different-html-trial","20","188602","0.0-3.0-17.0","","451-7","""shivering""","""buru.wav""","32","shivering","SRI","","","","","","6"
"","2000","same-different-html-trial","21","197604","0.0-3.0-18.0","","451-7","""supple""","""shinnari.wav""","32","supple","NRI","","","","","","7"
"","1843","same-different-html-trial","22","206755","0.0-3.0-19.0","","451-7","""suspenseful""","""harahara.wav""","32","suspenseful","RI","","","","","","8"
"","2055","same-different-html-trial","23","215810","0.0-3.0-20.0","","451-7","""hesitant""","""moji.wav""","32","hesitant","SRI","","","","","","9"
"","1900","same-different-html-trial","24","224711","0.0-3.0-21.0","","451-7","""vulgar""","""zokuzoku.wav""","32","vulgar","RNAdj","","","","","","10"
"","2269","same-different-html-trial","25","233980","0.0-3.0-22.0","","451-7","""crowded""","""bisshiribisshiri.wav""","32","crowded","RNRI","","","","","","11"
"","2490","same-different-html-trial","26","243470","0.0-3.0-23.0","","451-7","""useless""","""damedame.wav""","32","useless","RNAdj","","","","","","12"
"","1995","same-different-html-trial","27","252466","0.0-3.0-24.0","","451-7","""fast asleep""","""gussurigussuri.wav""","32","fast asleep","RNRI","","","","","","13"
"","1383","same-different-html-trial","28","260852","0.0-3.0-25.0","","451-7","""gaudy""","""kabi.wav""","32","gaudy","NAdj","","","","","","14"
"","1507","same-different-html-trial","29","269360","0.0-3.0-26.0","","451-7","""gaping""","""poka.wav""","32","gaping","NRI","","","","","","15"
"","1556","same-different-html-trial","30","277916","0.0-3.0-27.0","","451-7","""chatty""","""bera.wav""","32","chatty","SRI","","","","","","16"
"","1125","same-different-html-trial","31","286043","0.0-3.0-28.0","","451-7","""fragile""","""yawayawa.wav""","32","fragile","RNAdj","","","","","","17"
"","1188","same-different-html-trial","32","294231","0.0-3.0-29.0","","451-7","""wobbly""","""yura.wav""","32","wobbly","SRI","","","","","","18"
"","1803","same-different-html-trial","33","303035","0.0-3.0-30.0","","451-7","""sloppy""","""zatsu.wav""","32","sloppy","NAdj","","","","","","19"
"","1468","same-different-html-trial","34","311503","0.0-3.0-31.0","","451-7","""whole""","""goso.wav""","32","whole","NRI","","","","","","20"
"","1364","same-different-html-trial","35","319867","0.0-3.0-32.0","","451-7","""subdued""","""jimijimi.wav""","32","subdued","RNAdj","","","","","","21"
"","1345","same-different-html-trial","36","328213","0.0-3.0-33.0","","451-7","""whispering""","""hisohiso.wav""","32","whispering","RI","","","","","","22"
"","1179","same-different-html-trial","37","336392","0.0-3.0-34.0","","451-7","""worn out""","""boroboro.wav""","32","worn out","RI","","","","","","23"
"","1379","same-different-html-trial","38","344771","0.0-3.0-35.0","","451-7","""harsh""","""koku.wav""","32","harsh","NAdj","","","","","","24"
"","1391","same-different-html-trial","39","353164","0.0-3.0-36.0","","451-7","""useless""","""damedame.wav""","32","useless","RNAdj","","","","","","25"
"","1838","same-different-html-trial","40","362002","0.0-3.0-37.0","","451-7","""sloppy""","""zatsu.wav""","32","sloppy","NAdj","","","","","","26"
"","913","same-different-html-trial","41","369915","0.0-3.0-38.0","","451-7","""harsh""","""koku.wav""","32","harsh","NAdj","","","","","","27"
"","2684","same-different-html-trial","42","379598","0.0-3.0-39.0","","451-7","""wobbly""","""yura.wav""","32","wobbly","SRI","","","","","","28"
"","3165","same-different-html-trial","43","389765","0.0-3.0-40.0","","451-7","""impossible""","""muri.wav""","32","impossible","NAdj","","","","","","29"
"","1856","same-different-html-trial","44","398620","0.0-3.0-41.0","","451-7","""fast asleep""","""gussurigussuri.wav""","32","fast asleep","RNRI","","","","","","30"
"","1390","same-different-html-trial","45","407012","0.0-3.0-42.0","","451-7","""gaping""","""poka.wav""","32","gaping","NRI","","","","","","31"
"","904","same-different-html-trial","46","414917","0.0-3.0-43.0","","451-7","""gaudy""","""kabi.wav""","32","gaudy","NAdj","","","","","","32"
"","416","same-different-html-trial","47","422333","0.0-3.0-44.0","","451-7","""suspenseful""","""harahara.wav""","32","suspenseful","RI","","","","","","33"
"","1002","same-different-html-trial","48","430337","0.0-3.0-45.0","","451-7","""whole""","""goso.wav""","32","whole","NRI","","","","","","34"
"","482","same-different-html-trial","49","437818","0.0-3.0-46.0","","451-7","""worn out""","""boroboro.wav""","32","worn out","RI","","","","","","35"
"","672","same-different-html-trial","50","445490","0.0-3.0-47.0","","451-7","""vulgar""","""zokuzoku.wav""","32","vulgar","RNAdj","","","","","","36"
"","1385","same-different-html-trial","51","453875","0.0-3.0-48.0","","451-7","""noisy""","""gayagaya.wav""","32","noisy","RI","","","","","","37"
"","1636","same-different-html-trial","52","462511","0.0-3.0-49.0","","451-7","""crowded""","""bisshiribisshiri.wav""","32","crowded","RNRI","","","","","","38"
"","338","same-different-html-trial","53","469849","0.0-3.0-50.0","","451-7","""subdued""","""jimijimi.wav""","32","subdued","RNAdj","","","","","","39"
"","1317","same-different-html-trial","54","478167","0.0-3.0-51.0","","451-7","""nonchalantly""","""kero.wav""","32","nonchalantly","NRI","","","","","","40"
"","423","same-different-html-trial","55","485591","0.0-3.0-52.0","","451-7","""fragile""","""yawayawa.wav""","32","fragile","RNAdj","","","","","","41"
"","668","same-different-html-trial","56","493261","0.0-3.0-53.0","","451-7","""to change ocmpletely""","""garagara.wav""","32","to change ocmpletely","RNRI","","","","","","42"
"","1024","same-different-html-trial","57","501287","0.0-3.0-54.0","","451-7","""chatty""","""bera.wav""","32","chatty","SRI","","","","","","43"
"","299","same-different-html-trial","58","508586","0.0-3.0-55.0","","451-7","""plump""","""potcharipotchari.wav""","32","plump","RNRI","","","","","","44"
"","763","same-different-html-trial","59","516350","0.0-3.0-56.0","","451-7","""supple""","""shinnari.wav""","32","supple","NRI","","","","","","45"
"","287","same-different-html-trial","60","523638","0.0-3.0-57.0","","451-7","""shivering""","""buru.wav""","32","shivering","SRI","","","","","","46"
"","154","same-different-html-trial","61","530793","0.0-3.0-58.0","","451-7","""whispering""","""hisohiso.wav""","32","whispering","RI","","","","","","47"
"","305","same-different-html-trial","62","538215","0.0-3.0-59.0","","451-7","""hesitant""","""moji.wav""","32","hesitant","SRI","","","","","","48"
"[{""page_index"":0,""viewing_time"":1411}]","1411","instructions","63","540625","0.0-3.0-60.0","","","","","","","","","","","","",""
"","266","same-different-html","64","542891","0.0-3.0-61.0","","451-7","""harsh""","""gayagaya.wav""","90","noisy","RI","different","1","D","harsh","Y","1"
"","1614","same-different-html","65","547505","0.0-3.0-62.0","","451-7","""suspenseful""","""yawayawa.wav""","90","fragile","RNAdj","different","1","D","suspenseful","Y","2"
"","1263","same-different-html","66","551769","0.0-3.0-63.0","","451-7","""fragile""","""yawayawa.wav""","191","fragile","RNAdj","same","1","T","fragile","Y","3"
"","1981","same-different-html","67","556750","0.0-3.0-64.0","","451-7","""plump""","""harahara.wav""","191","suspenseful","RI","different","0","D","plump","Y","4"
"","1805","same-different-html","68","561555","0.0-3.0-65.0","","451-7","""subdued""","""jimijimi.wav""","90","subdued","RNAdj","same","0","T","subdued","Y","5"
"","1405","same-different-html","69","565959","0.0-3.0-66.0","","451-7","""shivering""","""goso.wav""","90","whole","NRI","different","1","D","shivering","Y","6"
"","1719","same-different-html","70","570680","0.0-3.0-67.0","","451-7","""shivering""","""buru.wav""","191","shivering","SRI","same","1","T","shivering","Y","7"
"","842","same-different-html","71","574521","0.0-3.0-68.0","","451-7","""wobbly""","""damedame.wav""","191","useless","RNAdj","different","0","D","wobbly","Y","8"
"","2584","same-different-html","72","580379","0.0-3.0-69.0","","451-7","""crowded""","""bisshiribisshiri.wav""","191","crowded","RNRI","same","1","T","crowded","Y","9"
"","2126","same-different-html","73","585505","0.0-3.0-70.0","","451-7","""chatty""","""bera.wav""","191","chatty","SRI","same","1","T","chatty","Y","10"
"","1526","same-different-html","74","590031","0.0-3.0-71.0","","451-7","""plump""","""potcharipotchari.wav""","90","plump","RNRI","same","0","T","plump","Y","11"
"","2022","same-different-html","75","595053","0.0-3.0-72.0","","451-7","""fast asleep""","""zokuzoku.wav""","191","vulgar","RNAdj","different","0","D","fast asleep","Y","12"
"","1419","same-different-html","76","599472","0.0-3.0-73.0","","451-7","""hesitant""","""bera.wav""","90","chatty","SRI","different","1","D","hesitant","Y","13"
"","2349","same-different-html","77","604821","0.0-3.0-74.0","","451-7","""noisy""","""gayagaya.wav""","191","noisy","RI","same","1","T","noisy","Y","14"
"","1704","same-different-html","78","609620","0.0-3.0-75.0","","451-7","""useless""","""garagara.wav""","90","to change ocmpletely","RNRI","different","1","D","useless","Y","15"
"","1480","same-different-html","79","614100","0.0-3.0-76.0","","451-7","""fragile""","""kero.wav""","90","nonchalantly","NRI","different","1","D","fragile","Y","16"
"","2136","same-different-html","80","619237","0.0-3.0-77.0","","451-7","""vulgar""","""zokuzoku.wav""","191","vulgar","RNAdj","same","1","T","vulgar","Y","17"
"","1708","same-different-html","81","624171","0.0-3.0-78.0","","451-7","""sloppy""","""zatsu.wav""","90","sloppy","NAdj","same","0","T","sloppy","Y","18"
"","2008","same-different-html","82","629180","0.0-3.0-79.0","","451-7","""whole""","""goso.wav""","191","whole","NRI","same","1","T","whole","Y","19"
"","1739","same-different-html","83","633919","0.0-3.0-80.0","","451-7","""supple""","""boroboro.wav""","90","worn out","RI","different","1","D","supple","Y","20"
"","1939","same-different-html","84","638859","0.0-3.0-81.0","","451-7","""impossible""","""muri.wav""","191","impossible","NAdj","same","1","T","impossible","Y","21"
"","2377","same-different-html","85","644237","0.0-3.0-82.0","","451-7","""whispering""","""hisohiso.wav""","191","whispering","RI","same","1","T","whispering","Y","22"
"","1007","same-different-html","86","648244","0.0-3.0-83.0","","451-7","""nonchalantly""","""kero.wav""","90","nonchalantly","NRI","same","0","T","nonchalantly","Y","23"
"","548","same-different-html","87","651792","0.0-3.0-84.0","","451-7","""fast asleep""","""gussurigussuri.wav""","90","fast asleep","RNRI","same","0","T","fast asleep","Y","24"
"","1872","same-different-html","88","656665","0.0-3.0-85.0","","451-7","""useless""","""damedame.wav""","90","useless","RNAdj","same","0","T","useless","Y","25"
"","1412","same-different-html","89","661077","0.0-3.0-86.0","","451-7","""subdued""","""zatsu.wav""","191","sloppy","NAdj","different","0","D","subdued","Y","26"
"","1424","same-different-html","90","665501","0.0-3.0-87.0","","451-7","""sloppy""","""moji.wav""","90","hesitant","SRI","different","1","D","sloppy","Y","27"
"","1220","same-different-html","91","669721","0.0-3.0-88.0","","451-7","""hesitant""","""moji.wav""","90","hesitant","SRI","same","0","T","hesitant","Y","28"
"","1103","same-different-html","92","673825","0.0-3.0-89.0","","451-7","""wobbly""","""yura.wav""","191","wobbly","SRI","same","1","T","wobbly","Y","29"
"","1108","same-different-html","93","677936","0.0-3.0-90.0","","451-7","""whole""","""muri.wav""","90","impossible","NAdj","different","1","D","whole","Y","30"
"","1775","same-different-html","94","682711","0.0-3.0-91.0","","451-7","""gaping""","""poka.wav""","191","gaping","NRI","same","1","T","gaping","Y","31"
"","447","same-different-html","95","686357","0.0-3.0-92.0","","451-7","""gaping""","""gussurigussuri.wav""","90","fast asleep","RNRI","different","1","D","gaping","Y","32"
"","168","same-different-html","96","689525","0.0-3.0-93.0","","451-7","""nonchalantly""","""kabi.wav""","90","gaudy","NAdj","different","1","D","nonchalantly","Y","33"
"","1645","same-different-html","97","694170","0.0-3.0-94.0","","451-7","""suspenseful""","""harahara.wav""","191","suspenseful","RI","same","1","T","suspenseful","Y","34"
"","424","same-different-html","98","697594","0.0-3.0-95.0","","451-7","""supple""","""shinnari.wav""","90","supple","NRI","same","0","T","supple","Y","35"
"","1671","same-different-html","99","702265","0.0-3.0-96.0","","451-7","""vulgar""","""buru.wav""","90","shivering","SRI","different","1","D","vulgar","Y","36"
"","2151","same-different-html","100","707416","0.0-3.0-97.0","","451-7","""noisy""","""bisshiribisshiri.wav""","191","crowded","RNRI","different","0","D","noisy","Y","37"
"","695","same-different-html","101","711113","0.0-3.0-98.0","","451-7","""impossible""","""poka.wav""","90","gaping","NRI","different","1","D","impossible","Y","38"
"","2354","same-different-html","102","716467","0.0-3.0-99.0","","451-7","""worn out""","""boroboro.wav""","191","worn out","RI","same","1","T","worn out","Y","39"
"","157","same-different-html","103","719624","0.0-3.0-100.0","","451-7","""harsh""","""koku.wav""","90","harsh","NAdj","same","0","T","harsh","Y","40"
"","803","same-different-html","104","723427","0.0-3.0-101.0","","451-7","""gaudy""","""kabi.wav""","90","gaudy","NAdj","same","0","T","gaudy","Y","41"
"","326","same-different-html","105","726753","0.0-3.0-102.0","","451-7","""whispering""","""koku.wav""","90","harsh","NAdj","different","1","D","whispering","Y","42"
"","1822","same-different-html","106","731576","0.0-3.0-103.0","","451-7","""to change ocmpletely""","""shinnari.wav""","191","supple","NRI","different","0","D","to change ocmpletely","Y","43"
"","455","same-different-html","107","735032","0.0-3.0-104.0","","451-7","""chatty""","""jimijimi.wav""","90","subdued","RNAdj","different","1","D","chatty","Y","44"
"","1145","same-different-html","108","739177","0.0-3.0-105.0","","451-7","""worn out""","""yura.wav""","90","wobbly","SRI","different","1","D","worn out","Y","45"
"","1722","same-different-html","109","743900","0.0-3.0-106.0","","451-7","""crowded""","""hisohiso.wav""","90","whispering","RI","different","1","D","crowded","Y","46"
"","1444","same-different-html","110","748344","0.0-3.0-107.0","","451-7","""to change ocmpletely""","""garagara.wav""","90","to change ocmpletely","RNRI","same","0","T","to change ocmpletely","Y","47"
"","320","same-different-html","111","751666","0.0-3.0-108.0","","451-7","""gaudy""","""potcharipotchari.wav""","90","plump","RNRI","different","1","D","gaudy","Y","48"
"[{""page_index"":0,""viewing_time"":4700}]","4700","instructions","112","757609","0.0-3.0-109.0","","","","","","","","","","","","",""
