"view_history","rt","trial_type","trial_index","time_elapsed","internal_node_id","responses","Id","word","sound","key_press","TrueMeaning","WordType","answer","correct","TrialType","TargetMeaning","LegalTrial","trialNum"
"[{""page_index"":0,""viewing_time"":21510}]","21513","instructions","0","21522","0.0-0.0","","","","","","","","","","","","",""
"[{""page_index"":0,""viewing_time"":26533},{""page_index"":1,""viewing_time"":9696},{""page_index"":2,""viewing_time"":12472},{""page_index"":3,""viewing_time"":11511},{""page_index"":4,""viewing_time"":71009}]","131222","instructions","1","152748","0.0-1.0","","","","","","","","","","","","",""
"","23413","survey-multi-choice","2","176182","0.0-2.0","{""Q0"":""Yes"",""Q1"":""Yes"",""Q2"":""Yes"",""Q3"":""Yes"",""Q4"":""Yes""}","","","","","","","","","","","",""
"[{""page_index"":0,""viewing_time"":2291},{""page_index"":1,""viewing_time"":11872}]","14164","instructions","3","190347","0.0-3.0-0.0","","","","","","","","","","","","",""
"","9284","same-different-html-trial","4","205670","0.0-3.0-1.0","","0","""sushi""","""prc_sushi.wav""","32","","","","","","","",""
"[{""page_index"":0,""viewing_time"":12658}]","12660","instructions","5","219330","0.0-3.0-2.0","","","","","","","","","","","","",""
"","16780","same-different-html","6","238123","0.0-3.0-3.0","","0","""sushi""","""prc_sushi.wav""","191","","","same","1","","","0",""
"[{""page_index"":0,""viewing_time"":13699}]","13701","instructions","7","252826","0.0-3.0-4.0","","","","","","","","","","","","",""
"","2782","same-different-html","8","257617","0.0-3.0-5.0","","0","""cat""","""prc_sushi.wav""","90","","","different","1","","","0",""
"[{""page_index"":0,""viewing_time"":8779},{""page_index"":1,""viewing_time"":4736}]","13516","instructions","9","272137","0.0-3.0-6.0","","","","","","","","","","","","",""
"","1999","same-different-html-trial","10","280154","0.0-3.0-7.0","","0","""thank you""","""prc_arigato.wav""","32","","","","","","","",""
"[{""page_index"":0,""viewing_time"":8884}]","8885","instructions","11","290041","0.0-3.0-8.0","","","","","","","","","","","","",""
"","3871","same-different-html","12","295924","0.0-3.0-9.0","","0","""thank you""","""prc_arigato.wav""","191","","","same","1","","","0",""
"","1993","same-different-html","13","300928","0.0-3.0-10.0","","0","""cat""","""prc_arigato.wav""","90","","","different","1","","","0",""
"[{""page_index"":0,""viewing_time"":2470},{""page_index"":1,""viewing_time"":32736}]","35207","instructions","14","337138","0.0-3.0-11.0","","","","","","","","","","","","",""
"","11026","same-different-html-trial","15","354186","0.0-3.0-12.0","","4028-4","""beneficial""","""tokutoku.wav""","32","beneficial","RNAdj","","","","","","1"
"","9716","same-different-html-trial","16","370923","0.0-3.0-13.0","","4028-4","""plump""","""potcharipotchari.wav""","32","plump","RNRI","","","","","","2"
"","2469","same-different-html-trial","17","380410","0.0-3.0-14.0","","4028-4","""fragile""","""yawayawa.wav""","32","fragile","RNAdj","","","","","","3"
"","4831","same-different-html-trial","18","392258","0.0-3.0-15.0","","4028-4","""smug""","""kiza.wav""","32","smug","NAdj","","","","","","4"
"","3116","same-different-html-trial","19","402390","0.0-3.0-16.0","","4028-4","""fast asleep""","""gussuri.wav""","32","fast asleep","NRI","","","","","","5"
"","2816","same-different-html-trial","20","412223","0.0-3.0-17.0","","4028-4","""decisive""","""pishapisha.wav""","32","decisive","RNRI","","","","","","6"
"","2817","same-different-html-trial","21","422058","0.0-3.0-18.0","","4028-4","""wobbly""","""yura.wav""","32","wobbly","SRI","","","","","","7"
"","4642","same-different-html-trial","22","433720","0.0-3.0-19.0","","4028-4","""resolute""","""bassari.wav""","32","resolute","NRI","","","","","","8"
"","3200","same-different-html-trial","23","443940","0.0-3.0-20.0","","4028-4","""energetic""","""kibikibi.wav""","32","energetic","RI","","","","","","9"
"","2291","same-different-html-trial","24","453254","0.0-3.0-21.0","","4028-4","""sudden""","""patapata.wav""","32","sudden","RNRI","","","","","","10"
"","4340","same-different-html-trial","25","464631","0.0-3.0-22.0","","4028-4","""comfortable""","""raku.wav""","32","comfortable","NAdj","","","","","","11"
"","5217","same-different-html-trial","26","476867","0.0-3.0-23.0","","4028-4","""supple""","""shinnari.wav""","32","supple","NRI","","","","","","12"
"","2201","same-different-html-trial","27","486083","0.0-3.0-24.0","","4028-4","""whole""","""goso.wav""","32","whole","NRI","","","","","","13"
"","2573","same-different-html-trial","28","495670","0.0-3.0-25.0","","4028-4","""perfect""","""batchiribatchiri.wav""","32","perfect","RNRI","","","","","","14"
"","1860","same-different-html-trial","29","504548","0.0-3.0-26.0","","4028-4","""useless""","""dame.wav""","32","useless","NAdj","","","","","","15"
"","1432","same-different-html-trial","30","513005","0.0-3.0-27.0","","4028-4","""excessive""","""kadokado.wav""","32","excessive","RNAdj","","","","","","16"
"","1296","same-different-html-trial","31","521316","0.0-3.0-28.0","","4028-4","""hesitant""","""moji.wav""","32","hesitant","SRI","","","","","","17"
"","442","same-different-html-trial","32","528778","0.0-3.0-29.0","","4028-4","""shivering""","""buruburu.wav""","32","shivering","RI","","","","","","18"
"","1276","same-different-html-trial","33","537072","0.0-3.0-30.0","","4028-4","""free""","""hima.wav""","32","free","NAdj","","","","","","19"
"","713","same-different-html-trial","34","544802","0.0-3.0-31.0","","4028-4","""subdued""","""jimijimi.wav""","32","subdued","RNAdj","","","","","","20"
"","4929","same-different-html-trial","35","556750","0.0-3.0-32.0","","4028-4","""rude""","""zuke.wav""","32","rude","SRI","","","","","","21"
"","1693","same-different-html-trial","36","565460","0.0-3.0-33.0","","4028-4","""fat""","""debudebu.wav""","32","fat","RI","","","","","","22"
"","578","same-different-html-trial","37","573061","0.0-3.0-34.0","","4028-4","""worn out""","""boro.wav""","32","worn out","SRI","","","","","","23"
"","1525","same-different-html-trial","38","581603","0.0-3.0-35.0","","4028-4","""glossy""","""tsuyatsuya.wav""","32","glossy","RI","","","","","","24"
"","2009","same-different-html-trial","39","590634","0.0-3.0-36.0","","4028-4","""hesitant""","""moji.wav""","32","hesitant","SRI","","","","","","25"
"","1335","same-different-html-trial","40","598987","0.0-3.0-37.0","","4028-4","""fragile""","""yawayawa.wav""","32","fragile","RNAdj","","","","","","26"
"","728","same-different-html-trial","41","606732","0.0-3.0-38.0","","4028-4","""plump""","""potcharipotchari.wav""","32","plump","RNRI","","","","","","27"
"","876","same-different-html-trial","42","614626","0.0-3.0-39.0","","4028-4","""perfect""","""batchiribatchiri.wav""","32","perfect","RNRI","","","","","","28"
"","435","same-different-html-trial","43","622086","0.0-3.0-40.0","","4028-4","""fast asleep""","""gussuri.wav""","32","fast asleep","NRI","","","","","","29"
"","1500","same-different-html-trial","44","630606","0.0-3.0-41.0","","4028-4","""beneficial""","""tokutoku.wav""","32","beneficial","RNAdj","","","","","","30"
"","1528","same-different-html-trial","45","639150","0.0-3.0-42.0","","4028-4","""comfortable""","""raku.wav""","32","comfortable","NAdj","","","","","","31"
"","402","same-different-html-trial","46","646569","0.0-3.0-43.0","","4028-4","""shivering""","""buruburu.wav""","32","shivering","RI","","","","","","32"
"","1336","same-different-html-trial","47","654923","0.0-3.0-44.0","","4028-4","""wobbly""","""yura.wav""","32","wobbly","SRI","","","","","","33"
"","657","same-different-html-trial","48","662603","0.0-3.0-45.0","","4028-4","""free""","""hima.wav""","32","free","NAdj","","","","","","34"
"","1378","same-different-html-trial","49","671000","0.0-3.0-46.0","","4028-4","""worn out""","""boro.wav""","32","worn out","SRI","","","","","","35"
"","1395","same-different-html-trial","50","679432","0.0-3.0-47.0","","4028-4","""decisive""","""pishapisha.wav""","32","decisive","RNRI","","","","","","36"
"","1293","same-different-html-trial","51","687748","0.0-3.0-48.0","","4028-4","""supple""","""shinnari.wav""","32","supple","NRI","","","","","","37"
"","403","same-different-html-trial","52","695167","0.0-3.0-49.0","","4028-4","""sudden""","""patapata.wav""","32","sudden","RNRI","","","","","","38"
"","1181","same-different-html-trial","53","703365","0.0-3.0-50.0","","4028-4","""whole""","""goso.wav""","32","whole","NRI","","","","","","39"
"","1304","same-different-html-trial","54","711699","0.0-3.0-51.0","","4028-4","""smug""","""kiza.wav""","32","smug","NAdj","","","","","","40"
"","1257","same-different-html-trial","55","719975","0.0-3.0-52.0","","4028-4","""excessive""","""kadokado.wav""","32","excessive","RNAdj","","","","","","41"
"","1654","same-different-html-trial","56","728645","0.0-3.0-53.0","","4028-4","""rude""","""zuke.wav""","32","rude","SRI","","","","","","42"
"","1855","same-different-html-trial","57","737518","0.0-3.0-54.0","","4028-4","""resolute""","""bassari.wav""","32","resolute","NRI","","","","","","43"
"","1543","same-different-html-trial","58","746080","0.0-3.0-55.0","","4028-4","""energetic""","""kibikibi.wav""","32","energetic","RI","","","","","","44"
"","1672","same-different-html-trial","59","754773","0.0-3.0-56.0","","4028-4","""glossy""","""tsuyatsuya.wav""","32","glossy","RI","","","","","","45"
"","1315","same-different-html-trial","60","763107","0.0-3.0-57.0","","4028-4","""useless""","""dame.wav""","32","useless","NAdj","","","","","","46"
"","1282","same-different-html-trial","61","771405","0.0-3.0-58.0","","4028-4","""fat""","""debudebu.wav""","32","fat","RI","","","","","","47"
"","1865","same-different-html-trial","62","780294","0.0-3.0-59.0","","4028-4","""subdued""","""jimijimi.wav""","32","subdued","RNAdj","","","","","","48"
"[{""page_index"":0,""viewing_time"":50866}]","50868","instructions","63","832165","0.0-3.0-60.0","","","","","","","","","","","","",""
"","4470","same-different-html","64","838649","0.0-3.0-61.0","","4028-4","""excessive""","""kadokado.wav""","90","excessive","RNAdj","same","0","T","excessive","Y","1"
"","2822","same-different-html","65","844480","0.0-3.0-62.0","","4028-4","""shivering""","""buruburu.wav""","191","shivering","RI","same","1","T","shivering","Y","2"
"","1814","same-different-html","66","849307","0.0-3.0-63.0","","4028-4","""sudden""","""patapata.wav""","90","sudden","RNRI","same","0","T","sudden","Y","3"
"","2944","same-different-html","67","855258","0.0-3.0-64.0","","4028-4","""beneficial""","""tokutoku.wav""","191","beneficial","RNAdj","same","1","T","beneficial","Y","4"
"","1569","same-different-html","68","859837","0.0-3.0-65.0","","4028-4","""fragile""","""yawayawa.wav""","90","fragile","RNAdj","same","0","T","fragile","Y","5"
"","2009","same-different-html","69","864864","0.0-3.0-66.0","","4028-4","""smug""","""tokutoku.wav""","90","beneficial","RNAdj","different","1","D","smug","Y","6"
"","1831","same-different-html","70","869704","0.0-3.0-67.0","","4028-4","""fast asleep""","""yura.wav""","90","wobbly","SRI","different","1","D","fast asleep","Y","7"
"","1363","same-different-html","71","874084","0.0-3.0-68.0","","4028-4","""hesitant""","""goso.wav""","90","whole","NRI","different","1","D","hesitant","Y","8"
"","1512","same-different-html","72","878604","0.0-3.0-69.0","","4028-4","""fragile""","""jimijimi.wav""","90","subdued","RNAdj","different","1","D","fragile","Y","9"
"","1430","same-different-html","73","883045","0.0-3.0-70.0","","4028-4","""shivering""","""raku.wav""","90","comfortable","NAdj","different","1","D","shivering","Y","10"
"","1284","same-different-html","74","887336","0.0-3.0-71.0","","4028-4","""hesitant""","""moji.wav""","191","hesitant","SRI","same","1","T","hesitant","Y","11"
"","1310","same-different-html","75","891660","0.0-3.0-72.0","","4028-4","""glossy""","""tsuyatsuya.wav""","90","glossy","RI","same","0","T","glossy","Y","12"
"","1352","same-different-html","76","896020","0.0-3.0-73.0","","4028-4","""fast asleep""","""gussuri.wav""","191","fast asleep","NRI","same","1","T","fast asleep","Y","13"
"","1076","same-different-html","77","900107","0.0-3.0-74.0","","4028-4","""useless""","""debudebu.wav""","191","fat","RI","different","0","D","useless","Y","14"
"","1177","same-different-html","78","904296","0.0-3.0-75.0","","4028-4","""perfect""","""moji.wav""","90","hesitant","SRI","different","1","D","perfect","Y","15"
"","1750","same-different-html","79","909056","0.0-3.0-76.0","","4028-4","""energetic""","""kibikibi.wav""","191","energetic","RI","same","1","T","energetic","Y","16"
"","1320","same-different-html","80","913389","0.0-3.0-77.0","","4028-4","""fat""","""debudebu.wav""","90","fat","RI","same","0","T","fat","Y","17"
"","1357","same-different-html","81","917761","0.0-3.0-78.0","","4028-4","""smug""","""kiza.wav""","90","smug","NAdj","same","0","T","smug","Y","18"
"","1544","same-different-html","82","922314","0.0-3.0-79.0","","4028-4","""sudden""","""boro.wav""","90","worn out","SRI","different","1","D","sudden","Y","19"
"","1368","same-different-html","83","926692","0.0-3.0-80.0","","4028-4","""worn out""","""boro.wav""","90","worn out","SRI","same","0","T","worn out","Y","20"
"","2345","same-different-html","84","932046","0.0-3.0-81.0","","4028-4","""worn out""","""batchiribatchiri.wav""","191","perfect","RNRI","different","0","D","worn out","Y","21"
"","1968","same-different-html","85","937026","0.0-3.0-82.0","","4028-4","""excessive""","""shinnari.wav""","90","supple","NRI","different","1","D","excessive","Y","22"
"","1268","same-different-html","86","941307","0.0-3.0-83.0","","4028-4","""fat""","""zuke.wav""","191","rude","SRI","different","0","D","fat","Y","23"
"","3392","same-different-html","87","947708","0.0-3.0-84.0","","4028-4","""supple""","""patapata.wav""","90","sudden","RNRI","different","1","D","supple","Y","24"
"","1786","same-different-html","88","952506","0.0-3.0-85.0","","4028-4","""subdued""","""bassari.wav""","90","resolute","NRI","different","1","D","subdued","Y","25"
"","1231","same-different-html","89","956749","0.0-3.0-86.0","","4028-4","""plump""","""kiza.wav""","90","smug","NAdj","different","1","D","plump","Y","26"
"","1442","same-different-html","90","961201","0.0-3.0-87.0","","4028-4","""rude""","""zuke.wav""","90","rude","SRI","same","0","T","rude","Y","27"
"","1600","same-different-html","91","965812","0.0-3.0-88.0","","4028-4","""whole""","""goso.wav""","191","whole","NRI","same","1","T","whole","Y","28"
"","2456","same-different-html","92","971278","0.0-3.0-89.0","","4028-4","""comfortable""","""raku.wav""","90","comfortable","NAdj","same","0","T","comfortable","Y","29"
"","2721","same-different-html","93","977009","0.0-3.0-90.0","","4028-4","""perfect""","""batchiribatchiri.wav""","191","perfect","RNRI","same","1","T","perfect","Y","30"
"","2107","same-different-html","94","982128","0.0-3.0-91.0","","4028-4","""rude""","""potcharipotchari.wav""","90","plump","RNRI","different","1","D","rude","Y","31"
"","1253","same-different-html","95","986390","0.0-3.0-92.0","","4028-4","""useless""","""dame.wav""","90","useless","NAdj","same","0","T","useless","Y","32"
"","1667","same-different-html","96","991070","0.0-3.0-93.0","","4028-4","""plump""","""potcharipotchari.wav""","191","plump","RNRI","same","1","T","plump","Y","33"
"","1465","same-different-html","97","995544","0.0-3.0-94.0","","4028-4","""glossy""","""pishapisha.wav""","90","decisive","RNRI","different","1","D","glossy","Y","34"
"","1179","same-different-html","98","999736","0.0-3.0-95.0","","4028-4","""beneficial""","""buruburu.wav""","191","shivering","RI","different","0","D","beneficial","Y","35"
"","1319","same-different-html","99","1004068","0.0-3.0-96.0","","4028-4","""wobbly""","""yura.wav""","90","wobbly","SRI","same","0","T","wobbly","Y","36"
"","1498","same-different-html","100","1008580","0.0-3.0-97.0","","4028-4","""resolute""","""yawayawa.wav""","90","fragile","RNAdj","different","1","D","resolute","Y","37"
"","1776","same-different-html","101","1013369","0.0-3.0-98.0","","4028-4","""whole""","""gussuri.wav""","90","fast asleep","NRI","different","1","D","whole","Y","38"
"","1611","same-different-html","102","1017989","0.0-3.0-99.0","","4028-4","""decisive""","""pishapisha.wav""","90","decisive","RNRI","same","0","T","decisive","Y","39"
"","2000","same-different-html","103","1022999","0.0-3.0-100.0","","4028-4","""energetic""","""hima.wav""","90","free","NAdj","different","1","D","energetic","Y","40"
"","1976","same-different-html","104","1027985","0.0-3.0-101.0","","4028-4","""wobbly""","""kadokado.wav""","90","excessive","RNAdj","different","1","D","wobbly","Y","41"
"","2168","same-different-html","105","1033164","0.0-3.0-102.0","","4028-4","""decisive""","""kibikibi.wav""","191","energetic","RI","different","0","D","decisive","Y","42"
"","1568","same-different-html","106","1037743","0.0-3.0-103.0","","4028-4","""resolute""","""bassari.wav""","90","resolute","NRI","same","0","T","resolute","Y","43"
"","2127","same-different-html","107","1042881","0.0-3.0-104.0","","4028-4","""comfortable""","""tsuyatsuya.wav""","191","glossy","RI","different","0","D","comfortable","Y","44"
"","1603","same-different-html","108","1047494","0.0-3.0-105.0","","4028-4","""supple""","""shinnari.wav""","90","supple","NRI","same","0","T","supple","Y","45"
"","1188","same-different-html","109","1051696","0.0-3.0-106.0","","4028-4","""free""","""dame.wav""","90","useless","NAdj","different","1","D","free","Y","46"
"","2096","same-different-html","110","1056804","0.0-3.0-107.0","","4028-4","""free""","""hima.wav""","191","free","NAdj","same","1","T","free","Y","47"
"","1904","same-different-html","111","1061721","0.0-3.0-108.0","","4028-4","""subdued""","""jimijimi.wav""","90","subdued","RNAdj","same","0","T","subdued","Y","48"
"[{""page_index"":0,""viewing_time"":9466}]","9466","instructions","112","1072188","0.0-3.0-109.0","","","","","","","","","","","","",""
