"view_history","rt","trial_type","trial_index","time_elapsed","internal_node_id","responses","Id","word","sound","key_press","TrueMeaning","WordType","answer","correct","TrialType","TargetMeaning","LegalTrial","trialNum"
"[{""page_index"":0,""viewing_time"":5382}]","5382","instructions","0","5385","0.0-0.0","","","","","","","","","","","","",""
"[{""page_index"":0,""viewing_time"":110810},{""page_index"":1,""viewing_time"":4976},{""page_index"":2,""viewing_time"":2763},{""page_index"":3,""viewing_time"":3599},{""page_index"":4,""viewing_time"":41642}]","163791","instructions","1","169177","0.0-1.0","","","","","","","","","","","","",""
"","10879","survey-multi-choice","2","180063","0.0-2.0","{""Q0"":""Yes"",""Q1"":""Yes"",""Q2"":""Yes"",""Q3"":""Yes"",""Q4"":""Yes""}","","","","","","","","","","","",""
"[{""page_index"":0,""viewing_time"":5100},{""page_index"":1,""viewing_time"":3879}]","8979","instructions","3","189042","0.0-3.0-0.0","","","","","","","","","","","","",""
"","2527","same-different-html-trial","4","197595","0.0-3.0-1.0","","0","""sushi""","""prc_sushi.wav""","32","","","","","","","",""
"[{""page_index"":0,""viewing_time"":6625}]","6626","instructions","5","205225","0.0-3.0-2.0","","","","","","","","","","","","",""
"","4850","same-different-html","6","212089","0.0-3.0-3.0","","0","""sushi""","""prc_sushi.wav""","191","","","same","1","","","0",""
"[{""page_index"":0,""viewing_time"":3620}]","3620","instructions","7","216710","0.0-3.0-4.0","","","","","","","","","","","","",""
"","1927","same-different-html","8","220642","0.0-3.0-5.0","","0","""cat""","""prc_sushi.wav""","90","","","different","1","","","0",""
"[{""page_index"":0,""viewing_time"":3975},{""page_index"":1,""viewing_time"":2619}]","6595","instructions","9","228238","0.0-3.0-6.0","","","","","","","","","","","","",""
"","3012","same-different-html-trial","10","237272","0.0-3.0-7.0","","0","""thank you""","""prc_arigato.wav""","32","","","","","","","",""
"[{""page_index"":0,""viewing_time"":3241}]","3241","instructions","11","241516","0.0-3.0-8.0","","","","","","","","","","","","",""
"","3143","same-different-html","12","246667","0.0-3.0-9.0","","0","""thank you""","""prc_arigato.wav""","191","","","same","1","","","0",""
"","2773","same-different-html","13","252455","0.0-3.0-10.0","","0","""cat""","""prc_arigato.wav""","90","","","different","1","","","0",""
"[{""page_index"":0,""viewing_time"":1619},{""page_index"":1,""viewing_time"":12466}]","14086","instructions","14","267546","0.0-3.0-11.0","","","","","","","","","","","","",""
"","3028","same-different-html-trial","15","276592","0.0-3.0-12.0","","6380-8","""sloppy""","""zatsuzatsu.wav""","32","sloppy","RNAdj","","","","","","1"
"","2995","same-different-html-trial","16","286612","0.0-3.0-13.0","","6380-8","""decisive""","""pisha.wav""","32","decisive","NRI","","","","","","2"
"","3068","same-different-html-trial","17","296701","0.0-3.0-14.0","","6380-8","""fat""","""debu.wav""","32","fat","SRI","","","","","","3"
"","2759","same-different-html-trial","18","306488","0.0-3.0-15.0","","6380-8","""nonchalantly""","""kero.wav""","32","nonchalantly","NRI","","","","","","4"
"","3978","same-different-html-trial","19","317482","0.0-3.0-16.0","","6380-8","""impossible""","""murimuri.wav""","32","impossible","RNAdj","","","","","","5"
"","2580","same-different-html-trial","20","327081","0.0-3.0-17.0","","6380-8","""dejected""","""gakugaku.wav""","32","dejected","RNRI","","","","","","6"
"","2168","same-different-html-trial","21","336273","0.0-3.0-18.0","","6380-8","""comfortable""","""raku.wav""","32","comfortable","NAdj","","","","","","7"
"","2276","same-different-html-trial","22","345568","0.0-3.0-19.0","","6380-8","""happy""","""ukiuki.wav""","32","happy","RI","","","","","","8"
"","2877","same-different-html-trial","23","355471","0.0-3.0-20.0","","6380-8","""whispering""","""hisohiso.wav""","32","whispering","RI","","","","","","9"
"","1803","same-different-html-trial","24","364294","0.0-3.0-21.0","","6380-8","""fast asleep""","""gussuri.wav""","32","fast asleep","NRI","","","","","","10"
"","3356","same-different-html-trial","25","374670","0.0-3.0-22.0","","6380-8","""smug""","""kiza.wav""","32","smug","NAdj","","","","","","11"
"","2534","same-different-html-trial","26","384226","0.0-3.0-23.0","","6380-8","""rude""","""zuke.wav""","32","rude","SRI","","","","","","12"
"","3428","same-different-html-trial","27","394679","0.0-3.0-24.0","","6380-8","""supple""","""shinnarishinnari.wav""","32","supple","RNRI","","","","","","13"
"","2493","same-different-html-trial","28","404195","0.0-3.0-25.0","","6380-8","""subdued""","""jimijimi.wav""","32","subdued","RNAdj","","","","","","14"
"","4400","same-different-html-trial","29","415620","0.0-3.0-26.0","","6380-8","""worn out""","""boro.wav""","32","worn out","SRI","","","","","","15"
"","3285","same-different-html-trial","30","425928","0.0-3.0-27.0","","6380-8","""free""","""hima.wav""","32","free","NAdj","","","","","","16"
"","3573","same-different-html-trial","31","436525","0.0-3.0-28.0","","6380-8","""exact""","""kakkirikakkiri.wav""","32","exact","RNRI","","","","","","17"
"","1831","same-different-html-trial","32","445386","0.0-3.0-29.0","","6380-8","""steaming""","""hokahoka.wav""","32","steaming","RI","","","","","","18"
"","1917","same-different-html-trial","33","454325","0.0-3.0-30.0","","6380-8","""sudden""","""pata.wav""","32","sudden","NRI","","","","","","19"
"","3004","same-different-html-trial","34","464352","0.0-3.0-31.0","","6380-8","""gaudy""","""kabikabi.wav""","32","gaudy","RNAdj","","","","","","20"
"","2721","same-different-html-trial","35","474091","0.0-3.0-32.0","","6380-8","""humid""","""mushi.wav""","32","humid","SRI","","","","","","21"
"","2572","same-different-html-trial","36","483677","0.0-3.0-33.0","","6380-8","""rare""","""mare.wav""","32","rare","NAdj","","","","","","22"
"","2771","same-different-html-trial","37","493474","0.0-3.0-34.0","","6380-8","""sturdy""","""gashigashi.wav""","32","sturdy","RNRI","","","","","","23"
"","2771","same-different-html-trial","38","503276","0.0-3.0-35.0","","6380-8","""wobbly""","""yurayura.wav""","32","wobbly","RI","","","","","","24"
"","2574","same-different-html-trial","39","512873","0.0-3.0-36.0","","6380-8","""smug""","""kiza.wav""","32","smug","NAdj","","","","","","25"
"","2566","same-different-html-trial","40","522458","0.0-3.0-37.0","","6380-8","""gaudy""","""kabikabi.wav""","32","gaudy","RNAdj","","","","","","26"
"","2999","same-different-html-trial","41","532478","0.0-3.0-38.0","","6380-8","""sturdy""","""gashigashi.wav""","32","sturdy","RNRI","","","","","","27"
"","2005","same-different-html-trial","42","541506","0.0-3.0-39.0","","6380-8","""wobbly""","""yurayura.wav""","32","wobbly","RI","","","","","","28"
"","1595","same-different-html-trial","43","550126","0.0-3.0-40.0","","6380-8","""whispering""","""hisohiso.wav""","32","whispering","RI","","","","","","29"
"","1149","same-different-html-trial","44","558300","0.0-3.0-41.0","","6380-8","""free""","""hima.wav""","32","free","NAdj","","","","","","30"
"","1768","same-different-html-trial","45","567089","0.0-3.0-42.0","","6380-8","""dejected""","""gakugaku.wav""","32","dejected","RNRI","","","","","","31"
"","1175","same-different-html-trial","46","575291","0.0-3.0-43.0","","6380-8","""comfortable""","""raku.wav""","32","comfortable","NAdj","","","","","","32"
"","1698","same-different-html-trial","47","584006","0.0-3.0-44.0","","6380-8","""decisive""","""pisha.wav""","32","decisive","NRI","","","","","","33"
"","1382","same-different-html-trial","48","592412","0.0-3.0-45.0","","6380-8","""fat""","""debu.wav""","32","fat","SRI","","","","","","34"
"","1156","same-different-html-trial","49","600586","0.0-3.0-46.0","","6380-8","""humid""","""mushi.wav""","32","humid","SRI","","","","","","35"
"","1693","same-different-html-trial","50","609296","0.0-3.0-47.0","","6380-8","""sudden""","""pata.wav""","32","sudden","NRI","","","","","","36"
"","1809","same-different-html-trial","51","618129","0.0-3.0-48.0","","6380-8","""steaming""","""hokahoka.wav""","32","steaming","RI","","","","","","37"
"","1345","same-different-html-trial","52","626498","0.0-3.0-49.0","","6380-8","""nonchalantly""","""kero.wav""","32","nonchalantly","NRI","","","","","","38"
"","1942","same-different-html-trial","53","635455","0.0-3.0-50.0","","6380-8","""rude""","""zuke.wav""","32","rude","SRI","","","","","","39"
"","3695","same-different-html-trial","54","646178","0.0-3.0-51.0","","6380-8","""worn out""","""boro.wav""","32","worn out","SRI","","","","","","40"
"","975","same-different-html-trial","55","654173","0.0-3.0-52.0","","6380-8","""fast asleep""","""gussuri.wav""","32","fast asleep","NRI","","","","","","41"
"","1198","same-different-html-trial","56","662391","0.0-3.0-53.0","","6380-8","""rare""","""mare.wav""","32","rare","NAdj","","","","","","42"
"","2446","same-different-html-trial","57","671861","0.0-3.0-54.0","","6380-8","""exact""","""kakkirikakkiri.wav""","32","exact","RNRI","","","","","","43"
"","1560","same-different-html-trial","58","680441","0.0-3.0-55.0","","6380-8","""happy""","""ukiuki.wav""","32","happy","RI","","","","","","44"
"","1751","same-different-html-trial","59","689218","0.0-3.0-56.0","","6380-8","""sloppy""","""zatsuzatsu.wav""","32","sloppy","RNAdj","","","","","","45"
"","1615","same-different-html-trial","60","697854","0.0-3.0-57.0","","6380-8","""impossible""","""murimuri.wav""","32","impossible","RNAdj","","","","","","46"
"","2439","same-different-html-trial","61","707305","0.0-3.0-58.0","","6380-8","""supple""","""shinnarishinnari.wav""","32","supple","RNRI","","","","","","47"
"","2544","same-different-html-trial","62","716872","0.0-3.0-59.0","","6380-8","""subdued""","""jimijimi.wav""","32","subdued","RNAdj","","","","","","48"
"[{""page_index"":0,""viewing_time"":10009}]","10009","instructions","63","727882","0.0-3.0-60.0","","","","","","","","","","","","",""
"","2258","same-different-html","64","732149","0.0-3.0-61.0","","6380-8","""fat""","""kakkirikakkiri.wav""","90","exact","RNRI","different","1","D","fat","Y","1"
"","3247","same-different-html","65","738413","0.0-3.0-62.0","","6380-8","""nonchalantly""","""kero.wav""","90","nonchalantly","NRI","same","0","T","nonchalantly","Y","2"
"","3731","same-different-html","66","745156","0.0-3.0-63.0","","6380-8","""subdued""","""jimijimi.wav""","90","subdued","RNAdj","same","0","T","subdued","Y","3"
"","1775","same-different-html","67","749943","0.0-3.0-64.0","","6380-8","""rude""","""zuke.wav""","191","rude","SRI","same","1","T","rude","Y","4"
"","1534","same-different-html","68","754490","0.0-3.0-65.0","","6380-8","""supple""","""pata.wav""","90","sudden","NRI","different","1","D","supple","Y","5"
"","2398","same-different-html","69","759907","0.0-3.0-66.0","","6380-8","""sloppy""","""zuke.wav""","90","rude","SRI","different","1","D","sloppy","Y","6"
"","3831","same-different-html","70","766751","0.0-3.0-67.0","","6380-8","""impossible""","""murimuri.wav""","191","impossible","RNAdj","same","1","T","impossible","Y","7"
"","1886","same-different-html","71","771649","0.0-3.0-68.0","","6380-8","""wobbly""","""yurayura.wav""","191","wobbly","RI","same","1","T","wobbly","Y","8"
"","11706","same-different-html","72","786367","0.0-3.0-69.0","","6380-8","""happy""","""ukiuki.wav""","191","happy","RI","same","1","T","happy","Y","9"
"","1981","same-different-html","73","791359","0.0-3.0-70.0","","6380-8","""wobbly""","""boro.wav""","90","worn out","SRI","different","1","D","wobbly","Y","10"
"","1210","same-different-html","74","795586","0.0-3.0-71.0","","6380-8","""worn out""","""boro.wav""","191","worn out","SRI","same","1","T","worn out","Y","11"
"","1787","same-different-html","75","800387","0.0-3.0-72.0","","6380-8","""steaming""","""hokahoka.wav""","191","steaming","RI","same","1","T","steaming","Y","12"
"","3066","same-different-html","76","806468","0.0-3.0-73.0","","6380-8","""decisive""","""pisha.wav""","90","decisive","NRI","same","0","T","decisive","Y","13"
"","2114","same-different-html","77","811593","0.0-3.0-74.0","","6380-8","""sturdy""","""gashigashi.wav""","191","sturdy","RNRI","same","1","T","sturdy","Y","14"
"","3031","same-different-html","78","817631","0.0-3.0-75.0","","6380-8","""comfortable""","""raku.wav""","90","comfortable","NAdj","same","0","T","comfortable","Y","15"
"","3988","same-different-html","79","824632","0.0-3.0-76.0","","6380-8","""sudden""","""hokahoka.wav""","90","steaming","RI","different","1","D","sudden","Y","16"
"","1229","same-different-html","80","828874","0.0-3.0-77.0","","6380-8","""rare""","""mare.wav""","191","rare","NAdj","same","1","T","rare","Y","17"
"","3180","same-different-html","81","835064","0.0-3.0-78.0","","6380-8","""exact""","""hisohiso.wav""","191","whispering","RI","different","0","D","exact","Y","18"
"","1655","same-different-html","82","839729","0.0-3.0-79.0","","6380-8","""humid""","""mushi.wav""","191","humid","SRI","same","1","T","humid","Y","19"
"","2623","same-different-html","83","845368","0.0-3.0-80.0","","6380-8","""comfortable""","""kabikabi.wav""","90","gaudy","RNAdj","different","1","D","comfortable","Y","20"
"","2701","same-different-html","84","851083","0.0-3.0-81.0","","6380-8","""nonchalantly""","""murimuri.wav""","90","impossible","RNAdj","different","1","D","nonchalantly","Y","21"
"","1679","same-different-html","85","855776","0.0-3.0-82.0","","6380-8","""free""","""shinnarishinnari.wav""","90","supple","RNRI","different","1","D","free","Y","22"
"","1860","same-different-html","86","860648","0.0-3.0-83.0","","6380-8","""fat""","""debu.wav""","191","fat","SRI","same","1","T","fat","Y","23"
"","1414","same-different-html","87","865076","0.0-3.0-84.0","","6380-8","""steaming""","""mushi.wav""","90","humid","SRI","different","1","D","steaming","Y","24"
"","1469","same-different-html","88","869566","0.0-3.0-85.0","","6380-8","""whispering""","""hisohiso.wav""","191","whispering","RI","same","1","T","whispering","Y","25"
"","2656","same-different-html","89","875230","0.0-3.0-86.0","","6380-8","""smug""","""kiza.wav""","191","smug","NAdj","same","1","T","smug","Y","26"
"","1613","same-different-html","90","879858","0.0-3.0-87.0","","6380-8","""fast asleep""","""jimijimi.wav""","90","subdued","RNAdj","different","1","D","fast asleep","Y","27"
"","2728","same-different-html","91","885599","0.0-3.0-88.0","","6380-8","""sudden""","""pata.wav""","191","sudden","NRI","same","1","T","sudden","Y","28"
"","2070","same-different-html","92","890678","0.0-3.0-89.0","","6380-8","""dejected""","""gakugaku.wav""","90","dejected","RNRI","same","0","T","dejected","Y","29"
"","1749","same-different-html","93","895448","0.0-3.0-90.0","","6380-8","""fast asleep""","""gussuri.wav""","191","fast asleep","NRI","same","1","T","fast asleep","Y","30"
"","1209","same-different-html","94","899668","0.0-3.0-91.0","","6380-8","""whispering""","""raku.wav""","90","comfortable","NAdj","different","1","D","whispering","Y","31"
"","1276","same-different-html","95","903961","0.0-3.0-92.0","","6380-8","""free""","""hima.wav""","191","free","NAdj","same","1","T","free","Y","32"
"","2669","same-different-html","96","909643","0.0-3.0-93.0","","6380-8","""sturdy""","""kiza.wav""","90","smug","NAdj","different","1","D","sturdy","Y","33"
"","2860","same-different-html","97","915519","0.0-3.0-94.0","","6380-8","""subdued""","""pisha.wav""","191","decisive","NRI","different","0","D","subdued","Y","34"
"","1617","same-different-html","98","920144","0.0-3.0-95.0","","6380-8","""humid""","""yurayura.wav""","90","wobbly","RI","different","1","D","humid","Y","35"
"","2379","same-different-html","99","925534","0.0-3.0-96.0","","6380-8","""supple""","""shinnarishinnari.wav""","90","supple","RNRI","same","0","T","supple","Y","36"
"","2787","same-different-html","100","931332","0.0-3.0-97.0","","6380-8","""happy""","""zatsuzatsu.wav""","191","sloppy","RNAdj","different","0","D","happy","Y","37"
"","2220","same-different-html","101","936562","0.0-3.0-98.0","","6380-8","""impossible""","""mare.wav""","90","rare","NAdj","different","1","D","impossible","Y","38"
"","2339","same-different-html","102","941913","0.0-3.0-99.0","","6380-8","""dejected""","""kero.wav""","191","nonchalantly","NRI","different","0","D","dejected","Y","39"
"","3070","same-different-html","103","947997","0.0-3.0-100.0","","6380-8","""exact""","""kakkirikakkiri.wav""","90","exact","RNRI","same","0","T","exact","Y","40"
"","1368","same-different-html","104","952373","0.0-3.0-101.0","","6380-8","""rare""","""ukiuki.wav""","90","happy","RI","different","1","D","rare","Y","41"
"","2039","same-different-html","105","957433","0.0-3.0-102.0","","6380-8","""smug""","""gashigashi.wav""","191","sturdy","RNRI","different","0","D","smug","Y","42"
"","2149","same-different-html","106","962593","0.0-3.0-103.0","","6380-8","""gaudy""","""kabikabi.wav""","191","gaudy","RNAdj","same","1","T","gaudy","Y","43"
"","2017","same-different-html","107","967618","0.0-3.0-104.0","","6380-8","""worn out""","""gussuri.wav""","90","fast asleep","NRI","different","1","D","worn out","Y","44"
"","2136","same-different-html","108","972760","0.0-3.0-105.0","","6380-8","""decisive""","""debu.wav""","90","fat","SRI","different","1","D","decisive","Y","45"
"","2653","same-different-html","109","978429","0.0-3.0-106.0","","6380-8","""gaudy""","""gakugaku.wav""","90","dejected","RNRI","different","1","D","gaudy","Y","46"
"","2662","same-different-html","110","984098","0.0-3.0-107.0","","6380-8","""rude""","""hima.wav""","191","free","NAdj","different","0","D","rude","Y","47"
"","1819","same-different-html","111","988933","0.0-3.0-108.0","","6380-8","""sloppy""","""zatsuzatsu.wav""","191","sloppy","RNAdj","same","1","T","sloppy","Y","48"
"[{""page_index"":0,""viewing_time"":10570}]","10571","instructions","112","1000511","0.0-3.0-109.0","","","","","","","","","","","","",""
