"view_history","rt","trial_type","trial_index","time_elapsed","internal_node_id","responses","Id","word","sound","key_press","TrueMeaning","WordType","answer","correct","TrialType","TargetMeaning","LegalTrial","trialNum"
"[{""page_index"":0,""viewing_time"":118607}]","118608","instructions","0","118608","0.0-0.0","","","","","","","","","","","","",""
"[{""page_index"":0,""viewing_time"":1631},{""page_index"":1,""viewing_time"":2944},{""page_index"":2,""viewing_time"":5416},{""page_index"":3,""viewing_time"":6263},{""page_index"":4,""viewing_time"":33385}]","49639","instructions","1","168247","0.0-1.0","","","","","","","","","","","","",""
"","13174","survey-multi-choice","2","181424","0.0-2.0","{""Q0"":""Yes"",""Q1"":""Yes"",""Q2"":""Yes"",""Q3"":""Yes"",""Q4"":""Yes""}","","","","","","","","","","","",""
"[{""page_index"":0,""viewing_time"":2143},{""page_index"":1,""viewing_time"":4440}]","6583","instructions","3","188007","0.0-3.0-0.0","","","","","","","","","","","","",""
"","4275","same-different-html-trial","4","198288","0.0-3.0-1.0","","0","""sushi""","""prc_sushi.wav""","32","","","","","","","",""
"[{""page_index"":0,""viewing_time"":6029}]","6030","instructions","5","205319","0.0-3.0-2.0","","","","","","","","","","","","",""
"","5717","same-different-html","6","213040","0.0-3.0-3.0","","0","""sushi""","""prc_sushi.wav""","191","","","same","1","","","0",""
"[{""page_index"":0,""viewing_time"":2230}]","2230","instructions","7","216272","0.0-3.0-4.0","","","","","","","","","","","","",""
"","3508","same-different-html","8","221783","0.0-3.0-5.0","","0","""cat""","""prc_sushi.wav""","90","","","different","1","","","0",""
"[{""page_index"":0,""viewing_time"":3177},{""page_index"":1,""viewing_time"":1879}]","5057","instructions","9","227839","0.0-3.0-6.0","","","","","","","","","","","","",""
"","2075","same-different-html-trial","10","235919","0.0-3.0-7.0","","0","""thank you""","""prc_arigato.wav""","32","","","","","","","",""
"[{""page_index"":0,""viewing_time"":3079}]","3079","instructions","11","239999","0.0-3.0-8.0","","","","","","","","","","","","",""
"","3068","same-different-html","12","245071","0.0-3.0-9.0","","0","""thank you""","""prc_arigato.wav""","191","","","same","1","","","0",""
"","3076","same-different-html","13","251152","0.0-3.0-10.0","","0","""cat""","""prc_arigato.wav""","90","","","different","1","","","0",""
"[{""page_index"":0,""viewing_time"":1061},{""page_index"":1,""viewing_time"":19136}]","20197","instructions","14","272350","0.0-3.0-11.0","","","","","","","","","","","","",""
"","2908","same-different-html-trial","15","281263","0.0-3.0-12.0","","2269-3","""disadvantaged""","""furifuri.wav""","32","disadvantaged","RNAdj","","","","","","1"
"","3171","same-different-html-trial","16","291439","0.0-3.0-13.0","","2269-3","""humid""","""mushimushi.wav""","32","humid","RI","","","","","","2"
"","2049","same-different-html-trial","17","300496","0.0-3.0-14.0","","2269-3","""worn out""","""boroboro.wav""","32","worn out","RI","","","","","","3"
"","4099","same-different-html-trial","18","311600","0.0-3.0-15.0","","2269-3","""nonchalantly""","""kero.wav""","32","nonchalantly","NRI","","","","","","4"
"","2018","same-different-html-trial","19","320623","0.0-3.0-16.0","","2269-3","""noisy""","""gaya.wav""","32","noisy","SRI","","","","","","5"
"","2355","same-different-html-trial","20","329984","0.0-3.0-17.0","","2269-3","""smug""","""kizakiza.wav""","32","smug","RNAdj","","","","","","6"
"","2258","same-different-html-trial","21","339248","0.0-3.0-18.0","","2269-3","""dejected""","""gakugaku.wav""","32","dejected","RNRI","","","","","","7"
"","2386","same-different-html-trial","22","348639","0.0-3.0-19.0","","2269-3","""rare""","""maremare.wav""","32","rare","RNAdj","","","","","","8"
"","2770","same-different-html-trial","23","358416","0.0-3.0-20.0","","2269-3","""sudden""","""pata.wav""","32","sudden","NRI","","","","","","9"
"","2674","same-different-html-trial","24","368096","0.0-3.0-21.0","","2269-3","""whispering""","""hiso.wav""","32","whispering","SRI","","","","","","10"
"","2721","same-different-html-trial","25","377823","0.0-3.0-22.0","","2269-3","""hasty""","""seka.wav""","32","hasty","SRI","","","","","","11"
"","3219","same-different-html-trial","26","388048","0.0-3.0-23.0","","2269-3","""sturdy""","""gashigashi.wav""","32","sturdy","RNRI","","","","","","12"
"","3251","same-different-html-trial","27","398304","0.0-3.0-24.0","","2269-3","""sloppy""","""zatsu.wav""","32","sloppy","NAdj","","","","","","13"
"","2273","same-different-html-trial","28","407583","0.0-3.0-25.0","","2269-3","""shivering""","""buruburu.wav""","32","shivering","RI","","","","","","14"
"","3251","same-different-html-trial","29","417840","0.0-3.0-26.0","","2269-3","""impossible""","""muri.wav""","32","impossible","NAdj","","","","","","15"
"","2976","same-different-html-trial","30","427823","0.0-3.0-27.0","","2269-3","""happy""","""ukiuki.wav""","32","happy","RI","","","","","","16"
"","2755","same-different-html-trial","31","437584","0.0-3.0-28.0","","2269-3","""smooth""","""nopperinopperi.wav""","32","smooth","RNRI","","","","","","17"
"","2960","same-different-html-trial","32","447551","0.0-3.0-29.0","","2269-3","""useless""","""dame.wav""","32","useless","NAdj","","","","","","18"
"","3251","same-different-html-trial","33","457808","0.0-3.0-30.0","","2269-3","""glossy""","""tsuya.wav""","32","glossy","SRI","","","","","","19"
"","3378","same-different-html-trial","34","468191","0.0-3.0-31.0","","2269-3","""fragile""","""yawayawa.wav""","32","fragile","RNAdj","","","","","","20"
"","2226","same-different-html-trial","35","477423","0.0-3.0-32.0","","2269-3","""vulgar""","""zoku.wav""","32","vulgar","NAdj","","","","","","21"
"","3426","same-different-html-trial","36","487856","0.0-3.0-33.0","","2269-3","""careful""","""jikkuri.wav""","32","careful","NRI","","","","","","22"
"","2961","same-different-html-trial","37","497823","0.0-3.0-34.0","","2269-3","""sullen""","""musu.wav""","32","sullen","NRI","","","","","","23"
"","2770","same-different-html-trial","38","507599","0.0-3.0-35.0","","2269-3","""resolute""","""bassaribassari.wav""","32","resolute","RNRI","","","","","","24"
"","2561","same-different-html-trial","39","517167","0.0-3.0-36.0","","2269-3","""sturdy""","""gashigashi.wav""","32","sturdy","RNRI","","","","","","25"
"","2708","same-different-html-trial","40","526880","0.0-3.0-37.0","","2269-3","""rare""","""maremare.wav""","32","rare","RNAdj","","","","","","26"
"","2768","same-different-html-trial","41","536654","0.0-3.0-38.0","","2269-3","""smug""","""kizakiza.wav""","32","smug","RNAdj","","","","","","27"
"","2387","same-different-html-trial","42","546048","0.0-3.0-39.0","","2269-3","""dejected""","""gakugaku.wav""","32","dejected","RNRI","","","","","","28"
"","1730","same-different-html-trial","43","554783","0.0-3.0-40.0","","2269-3","""disadvantaged""","""furifuri.wav""","32","disadvantaged","RNAdj","","","","","","29"
"","3763","same-different-html-trial","44","565552","0.0-3.0-41.0","","2269-3","""humid""","""mushimushi.wav""","32","humid","RI","","","","","","30"
"","3506","same-different-html-trial","45","576064","0.0-3.0-42.0","","2269-3","""nonchalantly""","""kero.wav""","32","nonchalantly","NRI","","","","","","31"
"","3056","same-different-html-trial","46","586128","0.0-3.0-43.0","","2269-3","""sudden""","""pata.wav""","32","sudden","NRI","","","","","","32"
"","5075","same-different-html-trial","47","598208","0.0-3.0-44.0","","2269-3","""careful""","""jikkuri.wav""","32","careful","NRI","","","","","","33"
"","4017","same-different-html-trial","48","609231","0.0-3.0-45.0","","2269-3","""impossible""","""muri.wav""","32","impossible","NAdj","","","","","","34"
"","4066","same-different-html-trial","49","620303","0.0-3.0-46.0","","2269-3","""vulgar""","""zoku.wav""","32","vulgar","NAdj","","","","","","35"
"","1281","same-different-html-trial","50","628590","0.0-3.0-47.0","","2269-3","""useless""","""dame.wav""","32","useless","NAdj","","","","","","36"
"","4178","same-different-html-trial","51","639776","0.0-3.0-48.0","","2269-3","""worn out""","""boroboro.wav""","32","worn out","RI","","","","","","37"
"","1618","same-different-html-trial","52","648399","0.0-3.0-49.0","","2269-3","""hasty""","""seka.wav""","32","hasty","SRI","","","","","","38"
"","2179","same-different-html-trial","53","657583","0.0-3.0-50.0","","2269-3","""sullen""","""musu.wav""","32","sullen","NRI","","","","","","39"
"","1266","same-different-html-trial","54","665856","0.0-3.0-51.0","","2269-3","""glossy""","""tsuya.wav""","32","glossy","SRI","","","","","","40"
"","1825","same-different-html-trial","55","674688","0.0-3.0-52.0","","2269-3","""smooth""","""nopperinopperi.wav""","32","smooth","RNRI","","","","","","41"
"","2194","same-different-html-trial","56","683888","0.0-3.0-53.0","","2269-3","""sloppy""","""zatsu.wav""","32","sloppy","NAdj","","","","","","42"
"","2355","same-different-html-trial","57","693248","0.0-3.0-54.0","","2269-3","""whispering""","""hiso.wav""","32","whispering","SRI","","","","","","43"
"","2113","same-different-html-trial","58","702367","0.0-3.0-55.0","","2269-3","""fragile""","""yawayawa.wav""","32","fragile","RNAdj","","","","","","44"
"","1554","same-different-html-trial","59","710928","0.0-3.0-56.0","","2269-3","""resolute""","""bassaribassari.wav""","32","resolute","RNRI","","","","","","45"
"","1395","same-different-html-trial","60","719328","0.0-3.0-57.0","","2269-3","""happy""","""ukiuki.wav""","32","happy","RI","","","","","","46"
"","2098","same-different-html-trial","61","728431","0.0-3.0-58.0","","2269-3","""noisy""","""gaya.wav""","32","noisy","SRI","","","","","","47"
"","1793","same-different-html-trial","62","737231","0.0-3.0-59.0","","2269-3","""shivering""","""buruburu.wav""","32","shivering","RI","","","","","","48"
"[{""page_index"":0,""viewing_time"":14152}]","14152","instructions","63","752384","0.0-3.0-60.0","","","","","","","","","","","","",""
"","3387","same-different-html","64","757775","0.0-3.0-61.0","","2269-3","""smooth""","""nopperinopperi.wav""","191","smooth","RNRI","same","1","T","smooth","Y","1"
"","2838","same-different-html","65","763616","0.0-3.0-62.0","","2269-3","""disadvantaged""","""furifuri.wav""","191","disadvantaged","RNAdj","same","1","T","disadvantaged","Y","2"
"","3012","same-different-html","66","769631","0.0-3.0-63.0","","2269-3","""hasty""","""seka.wav""","191","hasty","SRI","same","1","T","hasty","Y","3"
"","3460","same-different-html","67","776095","0.0-3.0-64.0","","2269-3","""dejected""","""gakugaku.wav""","191","dejected","RNRI","same","1","T","dejected","Y","4"
"","2789","same-different-html","68","781887","0.0-3.0-65.0","","2269-3","""hasty""","""dame.wav""","90","useless","NAdj","different","1","D","hasty","Y","5"
"","2947","same-different-html","69","787839","0.0-3.0-66.0","","2269-3","""nonchalantly""","""kero.wav""","191","nonchalantly","NRI","same","1","T","nonchalantly","Y","6"
"","2884","same-different-html","70","793727","0.0-3.0-67.0","","2269-3","""shivering""","""buruburu.wav""","191","shivering","RI","same","1","T","shivering","Y","7"
"","2756","same-different-html","71","799487","0.0-3.0-68.0","","2269-3","""noisy""","""mushimushi.wav""","90","humid","RI","different","1","D","noisy","Y","8"
"","2756","same-different-html","72","805248","0.0-3.0-69.0","","2269-3","""humid""","""mushimushi.wav""","191","humid","RI","same","1","T","humid","Y","9"
"","2886","same-different-html","73","811136","0.0-3.0-70.0","","2269-3","""rare""","""maremare.wav""","191","rare","RNAdj","same","1","T","rare","Y","10"
"","2805","same-different-html","74","816944","0.0-3.0-71.0","","2269-3","""smug""","""kizakiza.wav""","191","smug","RNAdj","same","1","T","smug","Y","11"
"","3317","same-different-html","75","823264","0.0-3.0-72.0","","2269-3","""resolute""","""jikkuri.wav""","90","careful","NRI","different","1","D","resolute","Y","12"
"","2900","same-different-html","76","829167","0.0-3.0-73.0","","2269-3","""whispering""","""gaya.wav""","90","noisy","SRI","different","1","D","whispering","Y","13"
"","2422","same-different-html","77","834592","0.0-3.0-74.0","","2269-3","""useless""","""dame.wav""","191","useless","NAdj","same","1","T","useless","Y","14"
"","3013","same-different-html","78","840608","0.0-3.0-75.0","","2269-3","""impossible""","""muri.wav""","191","impossible","NAdj","same","1","T","impossible","Y","15"
"","2517","same-different-html","79","846128","0.0-3.0-76.0","","2269-3","""sullen""","""buruburu.wav""","90","shivering","RI","different","1","D","sullen","Y","16"
"","2915","same-different-html","80","852047","0.0-3.0-77.0","","2269-3","""happy""","""bassaribassari.wav""","90","resolute","RNRI","different","1","D","happy","Y","17"
"","2949","same-different-html","81","858000","0.0-3.0-78.0","","2269-3","""dejected""","""kizakiza.wav""","191","smug","RNAdj","different","0","D","dejected","Y","18"
"","2885","same-different-html","82","863888","0.0-3.0-79.0","","2269-3","""vulgar""","""maremare.wav""","90","rare","RNAdj","different","1","D","vulgar","Y","19"
"","2853","same-different-html","83","869744","0.0-3.0-80.0","","2269-3","""smooth""","""muri.wav""","90","impossible","NAdj","different","1","D","smooth","Y","20"
"","2740","same-different-html","84","875488","0.0-3.0-81.0","","2269-3","""careful""","""jikkuri.wav""","191","careful","NRI","same","1","T","careful","Y","21"
"","2821","same-different-html","85","881312","0.0-3.0-82.0","","2269-3","""sudden""","""nopperinopperi.wav""","90","smooth","RNRI","different","1","D","sudden","Y","22"
"","2804","same-different-html","86","887119","0.0-3.0-83.0","","2269-3","""nonchalantly""","""pata.wav""","90","sudden","NRI","different","1","D","nonchalantly","Y","23"
"","3013","same-different-html","87","893136","0.0-3.0-84.0","","2269-3","""sudden""","""pata.wav""","191","sudden","NRI","same","1","T","sudden","Y","24"
"","2771","same-different-html","88","898911","0.0-3.0-85.0","","2269-3","""happy""","""ukiuki.wav""","191","happy","RI","same","1","T","happy","Y","25"
"","3081","same-different-html","89","904998","0.0-3.0-86.0","","2269-3","""vulgar""","""zoku.wav""","191","vulgar","NAdj","same","1","T","vulgar","Y","26"
"","2798","same-different-html","90","910799","0.0-3.0-87.0","","2269-3","""shivering""","""gakugaku.wav""","90","dejected","RNRI","different","1","D","shivering","Y","27"
"","2869","same-different-html","91","916672","0.0-3.0-88.0","","2269-3","""useless""","""tsuya.wav""","90","glossy","SRI","different","1","D","useless","Y","28"
"","3059","same-different-html","92","922735","0.0-3.0-89.0","","2269-3","""resolute""","""bassaribassari.wav""","191","resolute","RNRI","same","1","T","resolute","Y","29"
"","2806","same-different-html","93","928544","0.0-3.0-90.0","","2269-3","""sloppy""","""zatsu.wav""","191","sloppy","NAdj","same","1","T","sloppy","Y","30"
"","2772","same-different-html","94","934320","0.0-3.0-91.0","","2269-3","""sturdy""","""seka.wav""","90","hasty","SRI","different","1","D","sturdy","Y","31"
"","3013","same-different-html","95","940336","0.0-3.0-92.0","","2269-3","""sullen""","""musu.wav""","191","sullen","NRI","same","1","T","sullen","Y","32"
"","3059","same-different-html","96","946400","0.0-3.0-93.0","","2269-3","""glossy""","""tsuya.wav""","90","glossy","SRI","same","0","T","glossy","Y","33"
"","2933","same-different-html","97","952336","0.0-3.0-94.0","","2269-3","""worn out""","""gashigashi.wav""","90","sturdy","RNRI","different","1","D","worn out","Y","34"
"","3140","same-different-html","98","958480","0.0-3.0-95.0","","2269-3","""noisy""","""gaya.wav""","191","noisy","SRI","same","1","T","noisy","Y","35"
"","2869","same-different-html","99","964352","0.0-3.0-96.0","","2269-3","""worn out""","""boroboro.wav""","191","worn out","RI","same","1","T","worn out","Y","36"
"","2805","same-different-html","100","970160","0.0-3.0-97.0","","2269-3","""fragile""","""musu.wav""","90","sullen","NRI","different","1","D","fragile","Y","37"
"","2757","same-different-html","101","975920","0.0-3.0-98.0","","2269-3","""whispering""","""hiso.wav""","191","whispering","SRI","same","1","T","whispering","Y","38"
"","2324","same-different-html","102","981248","0.0-3.0-99.0","","2269-3","""sloppy""","""kero.wav""","90","nonchalantly","NRI","different","1","D","sloppy","Y","39"
"","2757","same-different-html","103","987008","0.0-3.0-100.0","","2269-3","""careful""","""zoku.wav""","90","vulgar","NAdj","different","1","D","careful","Y","40"
"","2788","same-different-html","104","992800","0.0-3.0-101.0","","2269-3","""rare""","""ukiuki.wav""","90","happy","RI","different","1","D","rare","Y","41"
"","2805","same-different-html","105","998608","0.0-3.0-102.0","","2269-3","""sturdy""","""gashigashi.wav""","191","sturdy","RNRI","same","1","T","sturdy","Y","42"
"","2803","same-different-html","106","1004415","0.0-3.0-103.0","","2269-3","""impossible""","""furifuri.wav""","90","disadvantaged","RNAdj","different","1","D","impossible","Y","43"
"","2885","same-different-html","107","1010304","0.0-3.0-104.0","","2269-3","""smug""","""yawayawa.wav""","90","fragile","RNAdj","different","1","D","smug","Y","44"
"","2804","same-different-html","108","1016111","0.0-3.0-105.0","","2269-3","""fragile""","""yawayawa.wav""","191","fragile","RNAdj","same","1","T","fragile","Y","45"
"","2790","same-different-html","109","1021905","0.0-3.0-106.0","","2269-3","""glossy""","""hiso.wav""","90","whispering","SRI","different","1","D","glossy","Y","46"
"","2804","same-different-html","110","1027712","0.0-3.0-107.0","","2269-3","""disadvantaged""","""zatsu.wav""","90","sloppy","NAdj","different","1","D","disadvantaged","Y","47"
"","2773","same-different-html","111","1033488","0.0-3.0-108.0","","2269-3","""humid""","""boroboro.wav""","90","worn out","RI","different","1","D","humid","Y","48"
"[{""page_index"":0,""viewing_time"":14248}]","14248","instructions","112","1048736","0.0-3.0-109.0","","","","","","","","","","","","",""
