"view_history","rt","trial_type","trial_index","time_elapsed","internal_node_id","responses","Id","word","sound","key_press","TrueMeaning","WordType","answer","correct","TrialType","TargetMeaning","LegalTrial","trialNum"
"[{""page_index"":0,""viewing_time"":3299}]","3300","instructions","0","3303","0.0-0.0","","","","","","","","","","","","",""
"[{""page_index"":0,""viewing_time"":2000},{""page_index"":1,""viewing_time"":1460},{""page_index"":2,""viewing_time"":1182},{""page_index"":3,""viewing_time"":3925},{""page_index"":4,""viewing_time"":40760}]","49328","instructions","1","52631","0.0-1.0","","","","","","","","","","","","",""
"","15116","survey-multi-choice","2","67758","0.0-2.0","{""Q0"":""Yes"",""Q1"":""Yes"",""Q2"":""Yes"",""Q3"":""Yes"",""Q4"":""Yes""}","","","","","","","","","","","",""
"[{""page_index"":0,""viewing_time"":2560},{""page_index"":1,""viewing_time"":5565}]","8125","instructions","3","75883","0.0-3.0-0.0","","","","","","","","","","","","",""
"","5089","same-different-html-trial","4","87004","0.0-3.0-1.0","","0","""sushi""","""prc_sushi.wav""","32","","","","","","","",""
"[{""page_index"":0,""viewing_time"":3705}]","3705","instructions","5","91710","0.0-3.0-2.0","","","","","","","","","","","","",""
"","11336","same-different-html","6","105058","0.0-3.0-3.0","","0","""sushi""","""prc_sushi.wav""","90","","","same","0","","","0",""
"[{""page_index"":0,""viewing_time"":4065}]","4065","instructions","7","110129","0.0-3.0-4.0","","","","","","","","","","","","",""
"","3816","same-different-html","8","115954","0.0-3.0-5.0","","0","""cat""","""prc_sushi.wav""","90","","","different","1","","","0",""
"[{""page_index"":0,""viewing_time"":3939},{""page_index"":1,""viewing_time"":2360}]","6300","instructions","9","123257","0.0-3.0-6.0","","","","","","","","","","","","",""
"","1445","same-different-html-trial","10","130721","0.0-3.0-7.0","","0","""thank you""","""prc_arigato.wav""","32","","","","","","","",""
"[{""page_index"":0,""viewing_time"":3047}]","3047","instructions","11","134770","0.0-3.0-8.0","","","","","","","","","","","","",""
"","4096","same-different-html","12","140874","0.0-3.0-9.0","","0","""thank you""","""prc_arigato.wav""","191","","","same","1","","","0",""
"","1597","same-different-html","13","145481","0.0-3.0-10.0","","0","""cat""","""prc_arigato.wav""","90","","","different","1","","","0",""
"[{""page_index"":0,""viewing_time"":1442},{""page_index"":1,""viewing_time"":15378}]","16820","instructions","14","163304","0.0-3.0-11.0","","","","","","","","","","","","",""
"","1543","same-different-html-trial","15","170872","0.0-3.0-12.0","","539-3","""deficient""","""fubifubi.wav""","32","deficient","RNAdj","","","","","","1"
"","4129","same-different-html-trial","16","182026","0.0-3.0-13.0","","539-3","""agitated""","""hikuhiku.wav""","32","agitated","RI","","","","","","2"
"","1683","same-different-html-trial","17","190729","0.0-3.0-14.0","","539-3","""stupid""","""baka.wav""","32","stupid","NAdj","","","","","","3"
"","3148","same-different-html-trial","18","200898","0.0-3.0-15.0","","539-3","""hesitant""","""mojimoji.wav""","32","hesitant","RI","","","","","","4"
"","2689","same-different-html-trial","19","210609","0.0-3.0-16.0","","539-3","""sullen""","""musumusu.wav""","32","sullen","RNRI","","","","","","5"
"","2422","same-different-html-trial","20","220057","0.0-3.0-17.0","","539-3","""sturdy""","""gashi.wav""","32","sturdy","NRI","","","","","","6"
"","1916","same-different-html-trial","21","228999","0.0-3.0-18.0","","539-3","""happy""","""uki.wav""","32","happy","SRI","","","","","","7"
"","2498","same-different-html-trial","22","238521","0.0-3.0-19.0","","539-3","""resolute""","""bassari.wav""","32","resolute","NRI","","","","","","8"
"","2867","same-different-html-trial","23","248410","0.0-3.0-20.0","","539-3","""crowded""","""bisshiribisshiri.wav""","32","crowded","RNRI","","","","","","9"
"","2224","same-different-html-trial","24","257655","0.0-3.0-21.0","","539-3","""to change ocmpletely""","""gara.wav""","32","to change ocmpletely","NRI","","","","","","10"
"","2284","same-different-html-trial","25","266961","0.0-3.0-22.0","","539-3","""rude""","""zukezuke.wav""","32","rude","RI","","","","","","11"
"","2381","same-different-html-trial","26","276362","0.0-3.0-23.0","","539-3","""vulgar""","""zoku.wav""","32","vulgar","NAdj","","","","","","12"
"","2131","same-different-html-trial","27","285521","0.0-3.0-24.0","","539-3","""harsh""","""kokukoku.wav""","32","harsh","RNAdj","","","","","","13"
"","2321","same-different-html-trial","28","294865","0.0-3.0-25.0","","539-3","""fat""","""debu.wav""","32","fat","SRI","","","","","","14"
"","2508","same-different-html-trial","29","304400","0.0-3.0-26.0","","539-3","""sudden""","""patapata.wav""","32","sudden","RNRI","","","","","","15"
"","1938","same-different-html-trial","30","313362","0.0-3.0-27.0","","539-3","""whispering""","""hiso.wav""","32","whispering","SRI","","","","","","16"
"","2793","same-different-html-trial","31","323178","0.0-3.0-28.0","","539-3","""gaudy""","""kabikabi.wav""","32","gaudy","RNAdj","","","","","","17"
"","1955","same-different-html-trial","32","332160","0.0-3.0-29.0","","539-3","""chatty""","""bera.wav""","32","chatty","SRI","","","","","","18"
"","1665","same-different-html-trial","33","340849","0.0-3.0-30.0","","539-3","""beneficial""","""toku.wav""","32","beneficial","NAdj","","","","","","19"
"","1803","same-different-html-trial","34","349672","0.0-3.0-31.0","","539-3","""comfortable""","""rakuraku.wav""","32","comfortable","RNAdj","","","","","","20"
"","2266","same-different-html-trial","35","358953","0.0-3.0-32.0","","539-3","""subdued""","""jimi.wav""","32","subdued","NAdj","","","","","","21"
"","3289","same-different-html-trial","36","369263","0.0-3.0-33.0","","539-3","""careful""","""jikkuri.wav""","32","careful","NRI","","","","","","22"
"","2815","same-different-html-trial","37","379104","0.0-3.0-34.0","","539-3","""fast asleep""","""gussurigussuri.wav""","32","fast asleep","RNRI","","","","","","23"
"","1533","same-different-html-trial","38","387658","0.0-3.0-35.0","","539-3","""shivering""","""buruburu.wav""","32","shivering","RI","","","","","","24"
"","1858","same-different-html-trial","39","396537","0.0-3.0-36.0","","539-3","""hesitant""","""mojimoji.wav""","32","hesitant","RI","","","","","","25"
"","1894","same-different-html-trial","40","405456","0.0-3.0-37.0","","539-3","""harsh""","""kokukoku.wav""","32","harsh","RNAdj","","","","","","26"
"","1633","same-different-html-trial","41","414112","0.0-3.0-38.0","","539-3","""crowded""","""bisshiribisshiri.wav""","32","crowded","RNRI","","","","","","27"
"","1946","same-different-html-trial","42","423080","0.0-3.0-39.0","","539-3","""sullen""","""musumusu.wav""","32","sullen","RNRI","","","","","","28"
"","1891","same-different-html-trial","43","435001","0.0-3.0-40.0","","539-3","""gaudy""","""kabikabi.wav""","32","gaudy","RNAdj","","","","","","29"
"","2373","same-different-html-trial","44","444401","0.0-3.0-41.0","","539-3","""sudden""","""patapata.wav""","32","sudden","RNRI","","","","","","30"
"","2702","same-different-html-trial","45","454130","0.0-3.0-42.0","","539-3","""comfortable""","""rakuraku.wav""","32","comfortable","RNAdj","","","","","","31"
"","2241","same-different-html-trial","46","463394","0.0-3.0-43.0","","539-3","""to change ocmpletely""","""gara.wav""","32","to change ocmpletely","NRI","","","","","","32"
"","1901","same-different-html-trial","47","472320","0.0-3.0-44.0","","539-3","""happy""","""uki.wav""","32","happy","SRI","","","","","","33"
"","2479","same-different-html-trial","48","481824","0.0-3.0-45.0","","539-3","""beneficial""","""toku.wav""","32","beneficial","NAdj","","","","","","34"
"","2719","same-different-html-trial","49","491569","0.0-3.0-46.0","","539-3","""shivering""","""buruburu.wav""","32","shivering","RI","","","","","","35"
"","2188","same-different-html-trial","50","500783","0.0-3.0-47.0","","539-3","""deficient""","""fubifubi.wav""","32","deficient","RNAdj","","","","","","36"
"","2220","same-different-html-trial","51","510026","0.0-3.0-48.0","","539-3","""vulgar""","""zoku.wav""","32","vulgar","NAdj","","","","","","37"
"","2588","same-different-html-trial","52","519641","0.0-3.0-49.0","","539-3","""sturdy""","""gashi.wav""","32","sturdy","NRI","","","","","","38"
"","2242","same-different-html-trial","53","528905","0.0-3.0-50.0","","539-3","""subdued""","""jimi.wav""","32","subdued","NAdj","","","","","","39"
"","2597","same-different-html-trial","54","538529","0.0-3.0-51.0","","539-3","""agitated""","""hikuhiku.wav""","32","agitated","RI","","","","","","40"
"","2861","same-different-html-trial","55","548418","0.0-3.0-52.0","","539-3","""stupid""","""baka.wav""","32","stupid","NAdj","","","","","","41"
"","1753","same-different-html-trial","56","557196","0.0-3.0-53.0","","539-3","""careful""","""jikkuri.wav""","32","careful","NRI","","","","","","42"
"","2157","same-different-html-trial","57","566378","0.0-3.0-54.0","","539-3","""rude""","""zukezuke.wav""","32","rude","RI","","","","","","43"
"","3020","same-different-html-trial","58","576417","0.0-3.0-55.0","","539-3","""fast asleep""","""gussurigussuri.wav""","32","fast asleep","RNRI","","","","","","44"
"","2334","same-different-html-trial","59","585770","0.0-3.0-56.0","","539-3","""whispering""","""hiso.wav""","32","whispering","SRI","","","","","","45"
"","2956","same-different-html-trial","60","595738","0.0-3.0-57.0","","539-3","""resolute""","""bassari.wav""","32","resolute","NRI","","","","","","46"
"","2148","same-different-html-trial","61","604899","0.0-3.0-58.0","","539-3","""chatty""","""bera.wav""","32","chatty","SRI","","","","","","47"
"","2253","same-different-html-trial","62","614178","0.0-3.0-59.0","","539-3","""fat""","""debu.wav""","32","fat","SRI","","","","","","48"
"[{""page_index"":0,""viewing_time"":21355}]","21356","instructions","63","636538","0.0-3.0-60.0","","","","","","","","","","","","",""
"","3009","same-different-html","64","641561","0.0-3.0-61.0","","539-3","""comfortable""","""jimi.wav""","191","subdued","NAdj","different","0","D","comfortable","Y","1"
"","2450","same-different-html","65","647025","0.0-3.0-62.0","","539-3","""sudden""","""jikkuri.wav""","191","careful","NRI","different","0","D","sudden","Y","2"
"","1617","same-different-html","66","651658","0.0-3.0-63.0","","539-3","""gaudy""","""kokukoku.wav""","90","harsh","RNAdj","different","1","D","gaudy","Y","3"
"","1602","same-different-html","67","656272","0.0-3.0-64.0","","539-3","""shivering""","""bera.wav""","191","chatty","SRI","different","0","D","shivering","Y","4"
"","1643","same-different-html","68","660929","0.0-3.0-65.0","","539-3","""resolute""","""bassari.wav""","191","resolute","NRI","same","1","T","resolute","Y","5"
"","1726","same-different-html","69","665672","0.0-3.0-66.0","","539-3","""harsh""","""kokukoku.wav""","191","harsh","RNAdj","same","1","T","harsh","Y","6"
"","1873","same-different-html","70","670559","0.0-3.0-67.0","","539-3","""sudden""","""patapata.wav""","90","sudden","RNRI","same","0","T","sudden","Y","7"
"","1866","same-different-html","71","675440","0.0-3.0-68.0","","539-3","""sturdy""","""bisshiribisshiri.wav""","191","crowded","RNRI","different","0","D","sturdy","Y","8"
"","1840","same-different-html","72","680295","0.0-3.0-69.0","","539-3","""vulgar""","""musumusu.wav""","191","sullen","RNRI","different","0","D","vulgar","Y","9"
"","2174","same-different-html","73","685481","0.0-3.0-70.0","","539-3","""happy""","""fubifubi.wav""","191","deficient","RNAdj","different","0","D","happy","Y","10"
"","3424","same-different-html","74","691921","0.0-3.0-71.0","","539-3","""to change ocmpletely""","""baka.wav""","191","stupid","NAdj","different","0","D","to change ocmpletely","Y","11"
"","1779","same-different-html","75","696711","0.0-3.0-72.0","","539-3","""sullen""","""musumusu.wav""","191","sullen","RNRI","same","1","T","sullen","Y","12"
"","1679","same-different-html","76","701408","0.0-3.0-73.0","","539-3","""shivering""","""buruburu.wav""","191","shivering","RI","same","1","T","shivering","Y","13"
"","1249","same-different-html","77","705671","0.0-3.0-74.0","","539-3","""deficient""","""fubifubi.wav""","191","deficient","RNAdj","same","1","T","deficient","Y","14"
"","1806","same-different-html","78","710490","0.0-3.0-75.0","","539-3","""gaudy""","""kabikabi.wav""","191","gaudy","RNAdj","same","1","T","gaudy","Y","15"
"","3127","same-different-html","79","716633","0.0-3.0-76.0","","539-3","""fast asleep""","""gussurigussuri.wav""","191","fast asleep","RNRI","same","1","T","fast asleep","Y","16"
"","1473","same-different-html","80","721120","0.0-3.0-77.0","","539-3","""resolute""","""buruburu.wav""","90","shivering","RI","different","1","D","resolute","Y","17"
"","2124","same-different-html","81","726258","0.0-3.0-78.0","","539-3","""careful""","""jikkuri.wav""","90","careful","NRI","same","0","T","careful","Y","18"
"","2676","same-different-html","82","731946","0.0-3.0-79.0","","539-3","""agitated""","""bassari.wav""","191","resolute","NRI","different","0","D","agitated","Y","19"
"","2243","same-different-html","83","737201","0.0-3.0-80.0","","539-3","""fat""","""zoku.wav""","90","vulgar","NAdj","different","1","D","fat","Y","20"
"","1968","same-different-html","84","742184","0.0-3.0-81.0","","539-3","""whispering""","""kabikabi.wav""","90","gaudy","RNAdj","different","1","D","whispering","Y","21"
"","3109","same-different-html","85","748305","0.0-3.0-82.0","","539-3","""hesitant""","""mojimoji.wav""","191","hesitant","RI","same","1","T","hesitant","Y","22"
"","1788","same-different-html","86","753105","0.0-3.0-83.0","","539-3","""to change ocmpletely""","""gara.wav""","191","to change ocmpletely","NRI","same","1","T","to change ocmpletely","Y","23"
"","1615","same-different-html","87","757735","0.0-3.0-84.0","","539-3","""rude""","""zukezuke.wav""","90","rude","RI","same","0","T","rude","Y","24"
"","2698","same-different-html","88","763450","0.0-3.0-85.0","","539-3","""comfortable""","""rakuraku.wav""","90","comfortable","RNAdj","same","0","T","comfortable","Y","25"
"","2299","same-different-html","89","768762","0.0-3.0-86.0","","539-3","""whispering""","""hiso.wav""","191","whispering","SRI","same","1","T","whispering","Y","26"
"","2634","same-different-html","90","774410","0.0-3.0-87.0","","539-3","""harsh""","""hikuhiku.wav""","191","agitated","RI","different","0","D","harsh","Y","27"
"","2428","same-different-html","91","779849","0.0-3.0-88.0","","539-3","""vulgar""","""zoku.wav""","191","vulgar","NAdj","same","1","T","vulgar","Y","28"
"","3865","same-different-html","92","786729","0.0-3.0-89.0","","539-3","""stupid""","""baka.wav""","191","stupid","NAdj","same","1","T","stupid","Y","29"
"","2060","same-different-html","93","791800","0.0-3.0-90.0","","539-3","""beneficial""","""toku.wav""","90","beneficial","NAdj","same","0","T","beneficial","Y","30"
"","2641","same-different-html","94","797457","0.0-3.0-91.0","","539-3","""subdued""","""rakuraku.wav""","90","comfortable","RNAdj","different","1","D","subdued","Y","31"
"","2855","same-different-html","95","803330","0.0-3.0-92.0","","539-3","""fat""","""debu.wav""","191","fat","SRI","same","1","T","fat","Y","32"
"","2559","same-different-html","96","808897","0.0-3.0-93.0","","539-3","""sullen""","""patapata.wav""","90","sudden","RNRI","different","1","D","sullen","Y","33"
"","2239","same-different-html","97","814151","0.0-3.0-94.0","","539-3","""crowded""","""bisshiribisshiri.wav""","191","crowded","RNRI","same","1","T","crowded","Y","34"
"","3061","same-different-html","98","820226","0.0-3.0-95.0","","539-3","""happy""","""uki.wav""","191","happy","SRI","same","1","T","happy","Y","35"
"","2914","same-different-html","99","826152","0.0-3.0-96.0","","539-3","""agitated""","""hikuhiku.wav""","90","agitated","RI","same","0","T","agitated","Y","36"
"","3379","same-different-html","100","832826","0.0-3.0-97.0","","539-3","""stupid""","""mojimoji.wav""","90","hesitant","RI","different","1","D","stupid","Y","37"
"","2150","same-different-html","101","837993","0.0-3.0-98.0","","539-3","""sturdy""","""gashi.wav""","90","sturdy","NRI","same","0","T","sturdy","Y","38"
"","2809","same-different-html","102","843818","0.0-3.0-99.0","","539-3","""crowded""","""gussurigussuri.wav""","90","fast asleep","RNRI","different","1","D","crowded","Y","39"
"","2905","same-different-html","103","849735","0.0-3.0-100.0","","539-3","""chatty""","""bera.wav""","90","chatty","SRI","same","0","T","chatty","Y","40"
"","3235","same-different-html","104","855986","0.0-3.0-101.0","","539-3","""rude""","""debu.wav""","191","fat","SRI","different","0","D","rude","Y","41"
"","3528","same-different-html","105","862529","0.0-3.0-102.0","","539-3","""chatty""","""zukezuke.wav""","191","rude","RI","different","0","D","chatty","Y","42"
"","2756","same-different-html","106","868298","0.0-3.0-103.0","","539-3","""fast asleep""","""toku.wav""","90","beneficial","NAdj","different","1","D","fast asleep","Y","43"
"","2505","same-different-html","107","873816","0.0-3.0-104.0","","539-3","""beneficial""","""hiso.wav""","90","whispering","SRI","different","1","D","beneficial","Y","44"
"","1512","same-different-html","108","878344","0.0-3.0-105.0","","539-3","""hesitant""","""gara.wav""","90","to change ocmpletely","NRI","different","1","D","hesitant","Y","45"
"","2223","same-different-html","109","883576","0.0-3.0-106.0","","539-3","""subdued""","""jimi.wav""","90","subdued","NAdj","same","0","T","subdued","Y","46"
"","1222","same-different-html","110","887815","0.0-3.0-107.0","","539-3","""deficient""","""uki.wav""","90","happy","SRI","different","1","D","deficient","Y","47"
"","2363","same-different-html","111","893194","0.0-3.0-108.0","","539-3","""careful""","""gashi.wav""","191","sturdy","NRI","different","0","D","careful","Y","48"
"[{""page_index"":0,""viewing_time"":8413}]","8414","instructions","112","902610","0.0-3.0-109.0","","","","","","","","","","","","",""
