"view_history","rt","trial_type","trial_index","time_elapsed","internal_node_id","responses","Id","word","sound","key_press","TrueMeaning","WordType","answer","correct","TrialType","TargetMeaning","LegalTrial","trialNum"
"[{""page_index"":0,""viewing_time"":1752}]","1753","instructions","0","1758","0.0-0.0","","","","","","","","","","","","",""
"[{""page_index"":0,""viewing_time"":1305},{""page_index"":1,""viewing_time"":1864},{""page_index"":2,""viewing_time"":16760},{""page_index"":3,""viewing_time"":2183},{""page_index"":4,""viewing_time"":2282}]","24396","instructions","1","26155","0.0-1.0","","","","","","","","","","","","",""
"","8703","survey-multi-choice","2","34868","0.0-2.0","{""Q0"":""Yes"",""Q1"":""Yes"",""Q2"":""Yes"",""Q3"":""Yes"",""Q4"":""Yes""}","","","","","","","","","","","",""
"[{""page_index"":0,""viewing_time"":1796},{""page_index"":1,""viewing_time"":1392}]","3188","instructions","3","38057","0.0-3.0-0.0","","","","","","","","","","","","",""
"","816466","same-different-html-trial","4","860537","0.0-3.0-1.0","","0","""sushi""","""prc_sushi.wav""","32","","","","","","","",""
"[{""page_index"":0,""viewing_time"":2420}]","2421","instructions","5","863969","0.0-3.0-2.0","","","","","","","","","","","","",""
"","3012","same-different-html","6","868984","0.0-3.0-3.0","","0","""sushi""","""prc_sushi.wav""","191","","","same","1","","","0",""
"[{""page_index"":0,""viewing_time"":1752}]","1752","instructions","7","871737","0.0-3.0-4.0","","","","","","","","","","","","",""
"","3214","same-different-html","8","876953","0.0-3.0-5.0","","0","""cat""","""prc_sushi.wav""","90","","","different","1","","","0",""
"[{""page_index"":0,""viewing_time"":4966},{""page_index"":1,""viewing_time"":3680}]","8646","instructions","9","886601","0.0-3.0-6.0","","","","","","","","","","","","",""
"","1629","same-different-html-trial","10","894234","0.0-3.0-7.0","","0","""thank you""","""prc_arigato.wav""","32","","","","","","","",""
"[{""page_index"":0,""viewing_time"":1000}]","1000","instructions","11","896233","0.0-3.0-8.0","","","","","","","","","","","","",""
"","2957","same-different-html","12","901191","0.0-3.0-9.0","","0","""thank you""","""prc_arigato.wav""","191","","","same","1","","","0",""
"","598","same-different-html","13","904792","0.0-3.0-10.0","","0","""cat""","""prc_arigato.wav""","90","","","different","1","","","0",""
"[{""page_index"":0,""viewing_time"":840},{""page_index"":1,""viewing_time"":1680}]","2520","instructions","14","908312","0.0-3.0-11.0","","","","","","","","","","","","",""
"","650","same-different-html-trial","15","914970","0.0-3.0-12.0","","8320-10","""energetic""","""kibikibi.wav""","32","energetic","RI","","","","","","1"
"","161","same-different-html-trial","16","922136","0.0-3.0-13.0","","8320-10","""resolute""","""bassaribassari.wav""","32","resolute","RNRI","","","","","","2"
"","83","same-different-html-trial","17","929224","0.0-3.0-14.0","","8320-10","""decisive""","""pisha.wav""","32","decisive","NRI","","","","","","3"
"","2","same-different-html-trial","18","936233","0.0-3.0-15.0","","8320-10","""beneficial""","""tokutoku.wav""","32","beneficial","RNAdj","","","","","","4"
"","220","same-different-html-trial","19","944043","0.0-3.0-16.0","","8320-10","""sturdy""","""gashigashi.wav""","32","sturdy","RNRI","","","","","","5"
"","184","same-different-html-trial","20","951240","0.0-3.0-17.0","","8320-10","""free""","""hima.wav""","32","free","NAdj","","","","","","6"
"","21","same-different-html-trial","21","958267","0.0-3.0-18.0","","8320-10","""deficient""","""fubi.wav""","32","deficient","NAdj","","","","","","7"
"","10","same-different-html-trial","22","965283","0.0-3.0-19.0","","8320-10","""humid""","""mushimushi.wav""","32","humid","RI","","","","","","8"
"","3935","same-different-html-trial","23","976231","0.0-3.0-20.0","","8320-10","""gaudy""","""kabi.wav""","32","gaudy","NAdj","","","","","","9"
"","6807","same-different-html-trial","24","991640","0.0-3.0-21.0","","8320-10","""clear""","""kukkirikukkiri.wav""","32","clear","RNRI","","","","","","10"
"","5932","same-different-html-trial","25","1004585","0.0-3.0-22.0","","8320-10","""vulgar""","""zokuzoku.wav""","32","vulgar","RNAdj","","","","","","11"
"","2195","same-different-html-trial","26","1013785","0.0-3.0-23.0","","8320-10","""perfect""","""batchiri.wav""","32","perfect","NRI","","","","","","12"
"","51","same-different-html-trial","27","1020840","0.0-3.0-24.0","","8320-10","""whole""","""gosogoso.wav""","32","whole","RNRI","","","","","","13"
"","181","same-different-html-trial","28","1028023","0.0-3.0-25.0","","8320-10","""whispering""","""hiso.wav""","32","whispering","SRI","","","","","","14"
"","8692","same-different-html-trial","29","1048504","0.0-3.0-26.0","","8320-10","""messy""","""gocha.wav""","32","messy","SRI","","","","","","15"
"","2229","same-different-html-trial","30","1057738","0.0-3.0-27.0","","8320-10","""gaping""","""poka.wav""","32","gaping","NRI","","","","","","16"
"","388","same-different-html-trial","31","1065129","0.0-3.0-28.0","","8320-10","""chubby""","""bukubuku.wav""","32","chubby","RI","","","","","","17"
"","274","same-different-html-trial","32","1072409","0.0-3.0-29.0","","8320-10","""suspenseful""","""harahara.wav""","32","suspenseful","RI","","","","","","18"
"","22","same-different-html-trial","33","1079432","0.0-3.0-30.0","","8320-10","""stupid""","""baka.wav""","32","stupid","NAdj","","","","","","19"
"","7","same-different-html-trial","34","1086442","0.0-3.0-31.0","","8320-10","""fast asleep""","""gussuri.wav""","32","fast asleep","NRI","","","","","","20"
"","114","same-different-html-trial","35","1093561","0.0-3.0-32.0","","8320-10","""stiff""","""gowa.wav""","32","stiff","SRI","","","","","","21"
"","180","same-different-html-trial","36","1100745","0.0-3.0-33.0","","8320-10","""disadvantaged""","""furifuri.wav""","32","disadvantaged","RNAdj","","","","","","22"
"","51","same-different-html-trial","37","1107801","0.0-3.0-34.0","","8320-10","""excessive""","""kadokado.wav""","32","excessive","RNAdj","","","","","","23"
"","23","same-different-html-trial","38","1114841","0.0-3.0-35.0","","8320-10","""worn out""","""boro.wav""","32","worn out","SRI","","","","","","24"
"","101","same-different-html-trial","39","1121945","0.0-3.0-36.0","","8320-10","""messy""","""gocha.wav""","32","messy","SRI","","","","","","25"
"","20","same-different-html-trial","40","1128970","0.0-3.0-37.0","","8320-10","""clear""","""kukkirikukkiri.wav""","32","clear","RNRI","","","","","","26"
"","147","same-different-html-trial","41","1136121","0.0-3.0-38.0","","8320-10","""worn out""","""boro.wav""","32","worn out","SRI","","","","","","27"
"","22","same-different-html-trial","42","1143849","0.0-3.0-39.0","","8320-10","""whole""","""gosogoso.wav""","32","whole","RNRI","","","","","","28"
"","90","same-different-html-trial","43","1150942","0.0-3.0-40.0","","8320-10","""fast asleep""","""gussuri.wav""","32","fast asleep","NRI","","","","","","29"
"","62","same-different-html-trial","44","1158008","0.0-3.0-41.0","","8320-10","""stiff""","""gowa.wav""","32","stiff","SRI","","","","","","30"
"","52","same-different-html-trial","45","1165063","0.0-3.0-42.0","","8320-10","""gaping""","""poka.wav""","32","gaping","NRI","","","","","","31"
"","100","same-different-html-trial","46","1172168","0.0-3.0-43.0","","8320-10","""beneficial""","""tokutoku.wav""","32","beneficial","RNAdj","","","","","","32"
"","38","same-different-html-trial","47","1179211","0.0-3.0-44.0","","8320-10","""humid""","""mushimushi.wav""","32","humid","RI","","","","","","33"
"","177","same-different-html-trial","48","1186394","0.0-3.0-45.0","","8320-10","""gaudy""","""kabi.wav""","32","gaudy","NAdj","","","","","","34"
"","97","same-different-html-trial","49","1193496","0.0-3.0-46.0","","8320-10","""stupid""","""baka.wav""","32","stupid","NAdj","","","","","","35"
"","20","same-different-html-trial","50","1200520","0.0-3.0-47.0","","8320-10","""vulgar""","""zokuzoku.wav""","32","vulgar","RNAdj","","","","","","36"
"","100","same-different-html-trial","51","1207624","0.0-3.0-48.0","","8320-10","""energetic""","""kibikibi.wav""","32","energetic","RI","","","","","","37"
"","67","same-different-html-trial","52","1214697","0.0-3.0-49.0","","8320-10","""disadvantaged""","""furifuri.wav""","32","disadvantaged","RNAdj","","","","","","38"
"","149","same-different-html-trial","53","1221850","0.0-3.0-50.0","","8320-10","""resolute""","""bassaribassari.wav""","32","resolute","RNRI","","","","","","39"
"","67","same-different-html-trial","54","1228921","0.0-3.0-51.0","","8320-10","""deficient""","""fubi.wav""","32","deficient","NAdj","","","","","","40"
"","148","same-different-html-trial","55","1236072","0.0-3.0-52.0","","8320-10","""decisive""","""pisha.wav""","32","decisive","NRI","","","","","","41"
"","453","same-different-html-trial","56","1243531","0.0-3.0-53.0","","8320-10","""excessive""","""kadokado.wav""","32","excessive","RNAdj","","","","","","42"
"","97","same-different-html-trial","57","1250637","0.0-3.0-54.0","","8320-10","""whispering""","""hiso.wav""","32","whispering","SRI","","","","","","43"
"","65","same-different-html-trial","58","1257705","0.0-3.0-55.0","","8320-10","""suspenseful""","""harahara.wav""","32","suspenseful","RI","","","","","","44"
"","111","same-different-html-trial","59","1264819","0.0-3.0-56.0","","8320-10","""sturdy""","""gashigashi.wav""","32","sturdy","RNRI","","","","","","45"
"","190","same-different-html-trial","60","1272024","0.0-3.0-57.0","","8320-10","""perfect""","""batchiri.wav""","32","perfect","NRI","","","","","","46"
"","37","same-different-html-trial","61","1279065","0.0-3.0-58.0","","8320-10","""chubby""","""bukubuku.wav""","32","chubby","RI","","","","","","47"
"","483","same-different-html-trial","62","1286552","0.0-3.0-59.0","","8320-10","""free""","""hima.wav""","32","free","NAdj","","","","","","48"
"[{""page_index"":0,""viewing_time"":4808}]","4808","instructions","63","1292616","0.0-3.0-60.0","","","","","","","","","","","","",""
"","3067","same-different-html","64","1297688","0.0-3.0-61.0","","8320-10","""chubby""","""furifuri.wav""","191","disadvantaged","RNAdj","different","0","D","chubby","Y","1"
"","468","same-different-html","65","1301160","0.0-3.0-62.0","","8320-10","""humid""","""mushimushi.wav""","90","humid","RI","same","0","T","humid","Y","2"
"","118","same-different-html","66","1304282","0.0-3.0-63.0","","8320-10","""deficient""","""fubi.wav""","191","deficient","NAdj","same","1","T","deficient","Y","3"
"","129","same-different-html","67","1307416","0.0-3.0-64.0","","8320-10","""energetic""","""kibikibi.wav""","191","energetic","RI","same","1","T","energetic","Y","4"
"","70","same-different-html","68","1310489","0.0-3.0-65.0","","8320-10","""sturdy""","""gashigashi.wav""","90","sturdy","RNRI","same","0","T","sturdy","Y","5"
"","15","same-different-html","69","1313512","0.0-3.0-66.0","","8320-10","""sturdy""","""baka.wav""","191","stupid","NAdj","different","0","D","sturdy","Y","6"
"","86","same-different-html","70","1316601","0.0-3.0-67.0","","8320-10","""resolute""","""kibikibi.wav""","191","energetic","RI","different","0","D","resolute","Y","7"
"","133","same-different-html","71","1319736","0.0-3.0-68.0","","8320-10","""suspenseful""","""harahara.wav""","191","suspenseful","RI","same","1","T","suspenseful","Y","8"
"","118","same-different-html","72","1322857","0.0-3.0-69.0","","8320-10","""free""","""hima.wav""","191","free","NAdj","same","1","T","free","Y","9"
"","118","same-different-html","73","1325976","0.0-3.0-70.0","","8320-10","""disadvantaged""","""furifuri.wav""","90","disadvantaged","RNAdj","same","0","T","disadvantaged","Y","10"
"","10","same-different-html","74","1328989","0.0-3.0-71.0","","8320-10","""whispering""","""batchiri.wav""","191","perfect","NRI","different","0","D","whispering","Y","11"
"","3","same-different-html","75","1331994","0.0-3.0-72.0","","8320-10","""stupid""","""gocha.wav""","191","messy","SRI","different","0","D","stupid","Y","12"
"","36","same-different-html","76","1335032","0.0-3.0-73.0","","8320-10","""chubby""","""bukubuku.wav""","90","chubby","RI","same","0","T","chubby","Y","13"
"","85","same-different-html","77","1338121","0.0-3.0-74.0","","8320-10","""whispering""","""hiso.wav""","191","whispering","SRI","same","1","T","whispering","Y","14"
"","70","same-different-html","78","1341193","0.0-3.0-75.0","","8320-10","""free""","""mushimushi.wav""","191","humid","RI","different","0","D","free","Y","15"
"","74","same-different-html","79","1344270","0.0-3.0-76.0","","8320-10","""excessive""","""kadokado.wav""","191","excessive","RNAdj","same","1","T","excessive","Y","16"
"","130","same-different-html","80","1347403","0.0-3.0-77.0","","8320-10","""clear""","""kukkirikukkiri.wav""","191","clear","RNRI","same","1","T","clear","Y","17"
"","82","same-different-html","81","1350489","0.0-3.0-78.0","","8320-10","""fast asleep""","""gussuri.wav""","191","fast asleep","NRI","same","1","T","fast asleep","Y","18"
"","71","same-different-html","82","1353561","0.0-3.0-79.0","","8320-10","""suspenseful""","""kabi.wav""","191","gaudy","NAdj","different","0","D","suspenseful","Y","19"
"","12","same-different-html","83","1356576","0.0-3.0-80.0","","8320-10","""decisive""","""tokutoku.wav""","90","beneficial","RNAdj","different","1","D","decisive","Y","20"
"","48","same-different-html","84","1359625","0.0-3.0-81.0","","8320-10","""gaping""","""gussuri.wav""","191","fast asleep","NRI","different","0","D","gaping","Y","21"
"","6","same-different-html","85","1362633","0.0-3.0-82.0","","8320-10","""gaudy""","""kabi.wav""","191","gaudy","NAdj","same","1","T","gaudy","Y","22"
"","7","same-different-html","86","1365642","0.0-3.0-83.0","","8320-10","""fast asleep""","""hiso.wav""","90","whispering","SRI","different","1","D","fast asleep","Y","23"
"","69","same-different-html","87","1368713","0.0-3.0-84.0","","8320-10","""humid""","""gowa.wav""","191","stiff","SRI","different","0","D","humid","Y","24"
"","69","same-different-html","88","1371785","0.0-3.0-85.0","","8320-10","""vulgar""","""zokuzoku.wav""","90","vulgar","RNAdj","same","0","T","vulgar","Y","25"
"","180","same-different-html","89","1374969","0.0-3.0-86.0","","8320-10","""perfect""","""batchiri.wav""","191","perfect","NRI","same","1","T","perfect","Y","26"
"","71","same-different-html","90","1378041","0.0-3.0-87.0","","8320-10","""decisive""","""pisha.wav""","191","decisive","NRI","same","1","T","decisive","Y","27"
"","86","same-different-html","91","1381129","0.0-3.0-88.0","","8320-10","""beneficial""","""pisha.wav""","191","decisive","NRI","different","0","D","beneficial","Y","28"
"","21","same-different-html","92","1384152","0.0-3.0-89.0","","8320-10","""stupid""","""baka.wav""","90","stupid","NAdj","same","0","T","stupid","Y","29"
"","86","same-different-html","93","1387241","0.0-3.0-90.0","","8320-10","""messy""","""gocha.wav""","191","messy","SRI","same","1","T","messy","Y","30"
"","10","same-different-html","94","1390253","0.0-3.0-91.0","","8320-10","""energetic""","""harahara.wav""","191","suspenseful","RI","different","0","D","energetic","Y","31"
"","4111","same-different-html","95","1397931","0.0-3.0-92.0","","8320-10","""stiff""","""gowa.wav""","191","stiff","SRI","same","1","T","stiff","Y","32"
"","83","same-different-html","96","1401016","0.0-3.0-93.0","","8320-10","""clear""","""poka.wav""","90","gaping","NRI","different","1","D","clear","Y","33"
"","358","same-different-html","97","1404377","0.0-3.0-94.0","","8320-10","""resolute""","""bassaribassari.wav""","191","resolute","RNRI","same","1","T","resolute","Y","34"
"","64","same-different-html","98","1407447","0.0-3.0-95.0","","8320-10","""whole""","""gosogoso.wav""","191","whole","RNRI","same","1","T","whole","Y","35"
"","55","same-different-html","99","1410504","0.0-3.0-96.0","","8320-10","""stiff""","""boro.wav""","191","worn out","SRI","different","0","D","stiff","Y","36"
"","6","same-different-html","100","1413513","0.0-3.0-97.0","","8320-10","""whole""","""fubi.wav""","191","deficient","NAdj","different","0","D","whole","Y","37"
"","165","same-different-html","101","1416681","0.0-3.0-98.0","","8320-10","""beneficial""","""tokutoku.wav""","191","beneficial","RNAdj","same","1","T","beneficial","Y","38"
"","70","same-different-html","102","1419752","0.0-3.0-99.0","","8320-10","""gaudy""","""zokuzoku.wav""","191","vulgar","RNAdj","different","0","D","gaudy","Y","39"
"","23","same-different-html","103","1422776","0.0-3.0-100.0","","8320-10","""messy""","""hima.wav""","191","free","NAdj","different","0","D","messy","Y","40"
"","22","same-different-html","104","1425800","0.0-3.0-101.0","","8320-10","""perfect""","""bassaribassari.wav""","90","resolute","RNRI","different","1","D","perfect","Y","41"
"","52","same-different-html","105","1428855","0.0-3.0-102.0","","8320-10","""worn out""","""kadokado.wav""","191","excessive","RNAdj","different","0","D","worn out","Y","42"
"","72","same-different-html","106","1431928","0.0-3.0-103.0","","8320-10","""deficient""","""gosogoso.wav""","90","whole","RNRI","different","1","D","deficient","Y","43"
"","22","same-different-html","107","1434954","0.0-3.0-104.0","","8320-10","""gaping""","""poka.wav""","90","gaping","NRI","same","0","T","gaping","Y","44"
"","101","same-different-html","108","1438056","0.0-3.0-105.0","","8320-10","""vulgar""","""gashigashi.wav""","90","sturdy","RNRI","different","1","D","vulgar","Y","45"
"","150","same-different-html","109","1441208","0.0-3.0-106.0","","8320-10","""excessive""","""kukkirikukkiri.wav""","191","clear","RNRI","different","0","D","excessive","Y","46"
"","20","same-different-html","110","1444232","0.0-3.0-107.0","","8320-10","""worn out""","""boro.wav""","90","worn out","SRI","same","0","T","worn out","Y","47"
"","37","same-different-html","111","1447273","0.0-3.0-108.0","","8320-10","""disadvantaged""","""bukubuku.wav""","191","chubby","RI","different","0","D","disadvantaged","Y","48"
"[{""page_index"":0,""viewing_time"":4964}]","4964","instructions","112","1453240","0.0-3.0-109.0","","","","","","","","","","","","",""
