"view_history","rt","trial_type","trial_index","time_elapsed","internal_node_id","responses","Id","word","sound","key_press","TrueMeaning","WordType","answer","correct","TrialType","TargetMeaning","LegalTrial","trialNum"
"[{""page_index"":0,""viewing_time"":88672}]","88672","instructions","0","88677","0.0-0.0","","","","","","","","","","","","",""
"[{""page_index"":0,""viewing_time"":2758},{""page_index"":1,""viewing_time"":5142},{""page_index"":2,""viewing_time"":6585},{""page_index"":3,""viewing_time"":10439},{""page_index"":4,""viewing_time"":23064}]","47988","instructions","1","136667","0.0-1.0","","","","","","","","","","","","",""
"","10608","survey-multi-choice","2","147284","0.0-2.0","{""Q0"":""Yes"",""Q1"":""Yes"",""Q2"":""Yes"",""Q3"":""Yes"",""Q4"":""Yes""}","","","","","","","","","","","",""
"[{""page_index"":0,""viewing_time"":1253},{""page_index"":1,""viewing_time"":3430}]","4686","instructions","3","151971","0.0-3.0-0.0","","","","","","","","","","","","",""
"","3080","same-different-html-trial","4","161066","0.0-3.0-1.0","","0","""sushi""","""prc_sushi.wav""","32","","","","","","","",""
"[{""page_index"":0,""viewing_time"":5806}]","5807","instructions","5","167874","0.0-3.0-2.0","","","","","","","","","","","","",""
"","7073","same-different-html","6","176950","0.0-3.0-3.0","","0","""sushi""","""prc_sushi.wav""","191","","","same","1","","","0",""
"[{""page_index"":0,""viewing_time"":3218}]","3218","instructions","7","181170","0.0-3.0-4.0","","","","","","","","","","","","",""
"","3136","same-different-html","8","186310","0.0-3.0-5.0","","0","""cat""","""prc_sushi.wav""","90","","","different","1","","","0",""
"[{""page_index"":0,""viewing_time"":3371},{""page_index"":1,""viewing_time"":1850}]","5222","instructions","9","192531","0.0-3.0-6.0","","","","","","","","","","","","",""
"","1360","same-different-html-trial","10","199900","0.0-3.0-7.0","","0","""thank you""","""prc_arigato.wav""","32","","","","","","","",""
"[{""page_index"":0,""viewing_time"":4887}]","4887","instructions","11","205786","0.0-3.0-8.0","","","","","","","","","","","","",""
"","3197","same-different-html","12","210986","0.0-3.0-9.0","","0","""thank you""","""prc_arigato.wav""","191","","","same","1","","","0",""
"","2907","same-different-html","13","216897","0.0-3.0-10.0","","0","""cat""","""prc_arigato.wav""","90","","","different","1","","","0",""
"[{""page_index"":0,""viewing_time"":2089},{""page_index"":1,""viewing_time"":12487}]","14578","instructions","14","232474","0.0-3.0-11.0","","","","","","","","","","","","",""
"","1996","same-different-html-trial","15","240478","0.0-3.0-12.0","","6651-1","""chubby""","""buku.wav""","32","chubby","SRI","","","","","","1"
"","1641","same-different-html-trial","16","249125","0.0-3.0-13.0","","6651-1","""free""","""hima.wav""","32","free","NAdj","","","","","","2"
"","1463","same-different-html-trial","17","257595","0.0-3.0-14.0","","6651-1","""useless""","""damedame.wav""","32","useless","RNAdj","","","","","","3"
"","1088","same-different-html-trial","18","265691","0.0-3.0-15.0","","6651-1","""harsh""","""koku.wav""","32","harsh","NAdj","","","","","","4"
"","1486","same-different-html-trial","19","274185","0.0-3.0-16.0","","6651-1","""sullen""","""musu.wav""","32","sullen","NRI","","","","","","5"
"","1507","same-different-html-trial","20","282697","0.0-3.0-17.0","","6651-1","""messy""","""gochagocha.wav""","32","messy","RI","","","","","","6"
"","2386","same-different-html-trial","21","292101","0.0-3.0-18.0","","6651-1","""smooth""","""nopperinopperi.wav""","32","smooth","RNRI","","","","","","7"
"","1737","same-different-html-trial","22","300845","0.0-3.0-19.0","","6651-1","""tasteless""","""yaboyabo.wav""","32","tasteless","RNAdj","","","","","","8"
"","2978","same-different-html-trial","23","310829","0.0-3.0-20.0","","6651-1","""supple""","""shinnarishinnari.wav""","32","supple","RNRI","","","","","","9"
"","1946","same-different-html-trial","24","319778","0.0-3.0-21.0","","6651-1","""offended""","""kachinkachin.wav""","32","offended","RNRI","","","","","","10"
"","1609","same-different-html-trial","25","328394","0.0-3.0-22.0","","6651-1","""worn out""","""boroboro.wav""","32","worn out","RI","","","","","","11"
"","2142","same-different-html-trial","26","337544","0.0-3.0-23.0","","6651-1","""crowded""","""bisshiri.wav""","32","crowded","NRI","","","","","","12"
"","2327","same-different-html-trial","27","346880","0.0-3.0-24.0","","6651-1","""whispering""","""hisohiso.wav""","32","whispering","RI","","","","","","13"
"","2647","same-different-html-trial","28","356533","0.0-3.0-25.0","","6651-1","""shivering""","""buru.wav""","32","shivering","SRI","","","","","","14"
"","1776","same-different-html-trial","29","365316","0.0-3.0-26.0","","6651-1","""decisive""","""pisha.wav""","32","decisive","NRI","","","","","","15"
"","2759","same-different-html-trial","30","375083","0.0-3.0-27.0","","6651-1","""hesitant""","""mojimoji.wav""","32","hesitant","RI","","","","","","16"
"","2080","same-different-html-trial","31","384171","0.0-3.0-28.0","","6651-1","""chatty""","""bera.wav""","32","chatty","SRI","","","","","","17"
"","2669","same-different-html-trial","32","393848","0.0-3.0-29.0","","6651-1","""rash""","""mucha.wav""","32","rash","NAdj","","","","","","18"
"","1050","same-different-html-trial","33","401903","0.0-3.0-30.0","","6651-1","""sudden""","""patapata.wav""","32","sudden","RNRI","","","","","","19"
"","3048","same-different-html-trial","34","411958","0.0-3.0-31.0","","6651-1","""hasty""","""seka.wav""","32","hasty","SRI","","","","","","20"
"","3900","same-different-html-trial","35","422869","0.0-3.0-32.0","","6651-1","""fragile""","""yawayawa.wav""","32","fragile","RNAdj","","","","","","21"
"","3239","same-different-html-trial","36","433114","0.0-3.0-33.0","","6651-1","""pure""","""mukumuku.wav""","32","pure","RNAdj","","","","","","22"
"","2951","same-different-html-trial","37","443072","0.0-3.0-34.0","","6651-1","""careful""","""jikkuri.wav""","32","careful","NRI","","","","","","23"
"","2161","same-different-html-trial","38","452240","0.0-3.0-35.0","","6651-1","""sloppy""","""zatsu.wav""","32","sloppy","NAdj","","","","","","24"
"","3154","same-different-html-trial","39","462400","0.0-3.0-36.0","","6651-1","""careful""","""jikkuri.wav""","32","careful","NRI","","","","","","25"
"","2022","same-different-html-trial","40","471430","0.0-3.0-37.0","","6651-1","""whispering""","""hisohiso.wav""","32","whispering","RI","","","","","","26"
"","3210","same-different-html-trial","41","481645","0.0-3.0-38.0","","6651-1","""sudden""","""patapata.wav""","32","sudden","RNRI","","","","","","27"
"","1581","same-different-html-trial","42","490236","0.0-3.0-39.0","","6651-1","""rash""","""mucha.wav""","32","rash","NAdj","","","","","","28"
"","2584","same-different-html-trial","43","499826","0.0-3.0-40.0","","6651-1","""hasty""","""seka.wav""","32","hasty","SRI","","","","","","29"
"","2738","same-different-html-trial","44","509570","0.0-3.0-41.0","","6651-1","""smooth""","""nopperinopperi.wav""","32","smooth","RNRI","","","","","","30"
"","1668","same-different-html-trial","45","518248","0.0-3.0-42.0","","6651-1","""decisive""","""pisha.wav""","32","decisive","NRI","","","","","","31"
"","4524","same-different-html-trial","46","529783","0.0-3.0-43.0","","6651-1","""tasteless""","""yaboyabo.wav""","32","tasteless","RNAdj","","","","","","32"
"","2911","same-different-html-trial","47","539726","0.0-3.0-44.0","","6651-1","""shivering""","""buru.wav""","32","shivering","SRI","","","","","","33"
"","4059","same-different-html-trial","48","550795","0.0-3.0-45.0","","6651-1","""free""","""hima.wav""","32","free","NAdj","","","","","","34"
"","1577","same-different-html-trial","49","559378","0.0-3.0-46.0","","6651-1","""chubby""","""buku.wav""","32","chubby","SRI","","","","","","35"
"","2003","same-different-html-trial","50","568418","0.0-3.0-47.0","","6651-1","""crowded""","""bisshiri.wav""","32","crowded","NRI","","","","","","36"
"","2767","same-different-html-trial","51","578192","0.0-3.0-48.0","","6651-1","""supple""","""shinnarishinnari.wav""","32","supple","RNRI","","","","","","37"
"","2648","same-different-html-trial","52","587846","0.0-3.0-49.0","","6651-1","""chatty""","""bera.wav""","32","chatty","SRI","","","","","","38"
"","3128","same-different-html-trial","53","597983","0.0-3.0-50.0","","6651-1","""worn out""","""boroboro.wav""","32","worn out","RI","","","","","","39"
"","3599","same-different-html-trial","54","608586","0.0-3.0-51.0","","6651-1","""harsh""","""koku.wav""","32","harsh","NAdj","","","","","","40"
"","4166","same-different-html-trial","55","619762","0.0-3.0-52.0","","6651-1","""pure""","""mukumuku.wav""","32","pure","RNAdj","","","","","","41"
"","2623","same-different-html-trial","56","629392","0.0-3.0-53.0","","6651-1","""sloppy""","""zatsu.wav""","32","sloppy","NAdj","","","","","","42"
"","3720","same-different-html-trial","57","640121","0.0-3.0-54.0","","6651-1","""offended""","""kachinkachin.wav""","32","offended","RNRI","","","","","","43"
"","3844","same-different-html-trial","58","650974","0.0-3.0-55.0","","6651-1","""sullen""","""musu.wav""","32","sullen","NRI","","","","","","44"
"","5774","same-different-html-trial","59","663757","0.0-3.0-56.0","","6651-1","""useless""","""damedame.wav""","32","useless","RNAdj","","","","","","45"
"","7001","same-different-html-trial","60","677763","0.0-3.0-57.0","","6651-1","""fragile""","""yawayawa.wav""","32","fragile","RNAdj","","","","","","46"
"","4357","same-different-html-trial","61","689128","0.0-3.0-58.0","","6651-1","""messy""","""gochagocha.wav""","32","messy","RI","","","","","","47"
"","1402","same-different-html-trial","62","697537","0.0-3.0-59.0","","6651-1","""hesitant""","""mojimoji.wav""","32","hesitant","RI","","","","","","48"
"[{""page_index"":0,""viewing_time"":12760}]","12761","instructions","63","711297","0.0-3.0-60.0","","","","","","","","","","","","",""
"","4182","same-different-html","64","717485","0.0-3.0-61.0","","6651-1","""tasteless""","""yaboyabo.wav""","90","tasteless","RNAdj","same","0","T","tasteless","Y","1"
"","2987","same-different-html","65","723477","0.0-3.0-62.0","","6651-1","""free""","""hima.wav""","191","free","NAdj","same","1","T","free","Y","2"
"","1978","same-different-html","66","728460","0.0-3.0-63.0","","6651-1","""sudden""","""patapata.wav""","191","sudden","RNRI","same","1","T","sudden","Y","3"
"","1650","same-different-html","67","733115","0.0-3.0-64.0","","6651-1","""fragile""","""yawayawa.wav""","191","fragile","RNAdj","same","1","T","fragile","Y","4"
"","1634","same-different-html","68","737771","0.0-3.0-65.0","","6651-1","""useless""","""damedame.wav""","191","useless","RNAdj","same","1","T","useless","Y","5"
"","1731","same-different-html","69","742521","0.0-3.0-66.0","","6651-1","""offended""","""bisshiri.wav""","90","crowded","NRI","different","1","D","offended","Y","6"
"","2005","same-different-html","70","747528","0.0-3.0-67.0","","6651-1","""whispering""","""mucha.wav""","191","rash","NAdj","different","0","D","whispering","Y","7"
"","2045","same-different-html","71","752577","0.0-3.0-68.0","","6651-1","""careful""","""jikkuri.wav""","191","careful","NRI","same","1","T","careful","Y","8"
"","1826","same-different-html","72","757408","0.0-3.0-69.0","","6651-1","""sullen""","""musu.wav""","191","sullen","NRI","same","1","T","sullen","Y","9"
"","2370","same-different-html","73","762783","0.0-3.0-70.0","","6651-1","""sudden""","""shinnarishinnari.wav""","90","supple","RNRI","different","1","D","sudden","Y","10"
"","2242","same-different-html","74","768029","0.0-3.0-71.0","","6651-1","""sloppy""","""kachinkachin.wav""","191","offended","RNRI","different","0","D","sloppy","Y","11"
"","1996","same-different-html","75","773029","0.0-3.0-72.0","","6651-1","""pure""","""damedame.wav""","90","useless","RNAdj","different","1","D","pure","Y","12"
"","2092","same-different-html","76","778125","0.0-3.0-73.0","","6651-1","""chatty""","""bera.wav""","90","chatty","SRI","same","0","T","chatty","Y","13"
"","1666","same-different-html","77","782795","0.0-3.0-74.0","","6651-1","""hesitant""","""hisohiso.wav""","90","whispering","RI","different","1","D","hesitant","Y","14"
"","869","same-different-html","78","786667","0.0-3.0-75.0","","6651-1","""supple""","""pisha.wav""","191","decisive","NRI","different","0","D","supple","Y","15"
"","1420","same-different-html","79","791094","0.0-3.0-76.0","","6651-1","""harsh""","""koku.wav""","90","harsh","NAdj","same","0","T","harsh","Y","16"
"","1760","same-different-html","80","795858","0.0-3.0-77.0","","6651-1","""shivering""","""hima.wav""","191","free","NAdj","different","0","D","shivering","Y","17"
"","2443","same-different-html","81","801306","0.0-3.0-78.0","","6651-1","""supple""","""shinnarishinnari.wav""","191","supple","RNRI","same","1","T","supple","Y","18"
"","1881","same-different-html","82","806192","0.0-3.0-79.0","","6651-1","""sloppy""","""zatsu.wav""","90","sloppy","NAdj","same","0","T","sloppy","Y","19"
"","1734","same-different-html","83","810928","0.0-3.0-80.0","","6651-1","""chubby""","""buku.wav""","90","chubby","SRI","same","0","T","chubby","Y","20"
"","2379","same-different-html","84","816311","0.0-3.0-81.0","","6651-1","""worn out""","""yaboyabo.wav""","90","tasteless","RNAdj","different","1","D","worn out","Y","21"
"","1619","same-different-html","85","820934","0.0-3.0-82.0","","6651-1","""harsh""","""nopperinopperi.wav""","191","smooth","RNRI","different","0","D","harsh","Y","22"
"","1963","same-different-html","86","825901","0.0-3.0-83.0","","6651-1","""free""","""yawayawa.wav""","90","fragile","RNAdj","different","1","D","free","Y","23"
"","3220","same-different-html","87","832125","0.0-3.0-84.0","","6651-1","""tasteless""","""gochagocha.wav""","191","messy","RI","different","0","D","tasteless","Y","24"
"","1699","same-different-html","88","836836","0.0-3.0-85.0","","6651-1","""messy""","""boroboro.wav""","90","worn out","RI","different","1","D","messy","Y","25"
"","1477","same-different-html","89","841316","0.0-3.0-86.0","","6651-1","""hesitant""","""mojimoji.wav""","191","hesitant","RI","same","1","T","hesitant","Y","26"
"","1386","same-different-html","90","845708","0.0-3.0-87.0","","6651-1","""fragile""","""patapata.wav""","90","sudden","RNRI","different","1","D","fragile","Y","27"
"","1378","same-different-html","91","850090","0.0-3.0-88.0","","6651-1","""crowded""","""mojimoji.wav""","90","hesitant","RI","different","1","D","crowded","Y","28"
"","1738","same-different-html","92","854834","0.0-3.0-89.0","","6651-1","""pure""","""mukumuku.wav""","90","pure","RNAdj","same","0","T","pure","Y","29"
"","1363","same-different-html","93","859202","0.0-3.0-90.0","","6651-1","""smooth""","""jikkuri.wav""","191","careful","NRI","different","0","D","smooth","Y","30"
"","1767","same-different-html","94","863976","0.0-3.0-91.0","","6651-1","""decisive""","""pisha.wav""","90","decisive","NRI","same","0","T","decisive","Y","31"
"","2236","same-different-html","95","869216","0.0-3.0-92.0","","6651-1","""messy""","""gochagocha.wav""","191","messy","RI","same","1","T","messy","Y","32"
"","1553","same-different-html","96","873775","0.0-3.0-93.0","","6651-1","""sullen""","""mukumuku.wav""","191","pure","RNAdj","different","0","D","sullen","Y","33"
"","1814","same-different-html","97","878598","0.0-3.0-94.0","","6651-1","""rash""","""musu.wav""","90","sullen","NRI","different","1","D","rash","Y","34"
"","2373","same-different-html","98","883974","0.0-3.0-95.0","","6651-1","""careful""","""koku.wav""","90","harsh","NAdj","different","1","D","careful","Y","35"
"","1194","same-different-html","99","888173","0.0-3.0-96.0","","6651-1","""decisive""","""zatsu.wav""","90","sloppy","NAdj","different","1","D","decisive","Y","36"
"","1457","same-different-html","100","892637","0.0-3.0-97.0","","6651-1","""smooth""","""nopperinopperi.wav""","90","smooth","RNRI","same","0","T","smooth","Y","37"
"","1382","same-different-html","101","897021","0.0-3.0-98.0","","6651-1","""hasty""","""bera.wav""","90","chatty","SRI","different","1","D","hasty","Y","38"
"","1594","same-different-html","102","901620","0.0-3.0-99.0","","6651-1","""offended""","""kachinkachin.wav""","90","offended","RNRI","same","0","T","offended","Y","39"
"","434","same-different-html","103","905059","0.0-3.0-100.0","","6651-1","""worn out""","""boroboro.wav""","90","worn out","RI","same","0","T","worn out","Y","40"
"","2011","same-different-html","104","910074","0.0-3.0-101.0","","6651-1","""useless""","""seka.wav""","90","hasty","SRI","different","1","D","useless","Y","41"
"","1508","same-different-html","105","914587","0.0-3.0-102.0","","6651-1","""shivering""","""buru.wav""","191","shivering","SRI","same","1","T","shivering","Y","42"
"","1995","same-different-html","106","919585","0.0-3.0-103.0","","6651-1","""chatty""","""buku.wav""","191","chubby","SRI","different","0","D","chatty","Y","43"
"","5886","same-different-html","107","928481","0.0-3.0-104.0","","6651-1","""chubby""","""buru.wav""","191","shivering","SRI","different","0","D","chubby","Y","44"
"","2640","same-different-html","108","934126","0.0-3.0-105.0","","6651-1","""hasty""","""seka.wav""","191","hasty","SRI","same","1","T","hasty","Y","45"
"","4012","same-different-html","109","941142","0.0-3.0-106.0","","6651-1","""whispering""","""hisohiso.wav""","191","whispering","RI","same","1","T","whispering","Y","46"
"","3140","same-different-html","110","947285","0.0-3.0-107.0","","6651-1","""crowded""","""bisshiri.wav""","191","crowded","NRI","same","1","T","crowded","Y","47"
"","3285","same-different-html","111","953573","0.0-3.0-108.0","","6651-1","""rash""","""mucha.wav""","90","rash","NAdj","same","0","T","rash","Y","48"
"[{""page_index"":0,""viewing_time"":17102}]","17102","instructions","112","971677","0.0-3.0-109.0","","","","","","","","","","","","",""
