"view_history","rt","trial_type","trial_index","time_elapsed","internal_node_id","responses","Id","word","sound","key_press","TrueMeaning","WordType","answer","correct","TrialType","TargetMeaning","LegalTrial","trialNum"
"[{""page_index"":0,""viewing_time"":2961}]","2962","instructions","0","2964","0.0-0.0","","","","","","","","","","","","",""
"[{""page_index"":0,""viewing_time"":1625},{""page_index"":1,""viewing_time"":8037},{""page_index"":2,""viewing_time"":87093},{""page_index"":3,""viewing_time"":6747},{""page_index"":4,""viewing_time"":19827}]","123329","instructions","1","126294","0.0-1.0","","","","","","","","","","","","",""
"","9461","survey-multi-choice","2","135760","0.0-2.0","{""Q0"":""Yes"",""Q1"":""Yes"",""Q2"":""Yes"",""Q3"":""Yes"",""Q4"":""Yes""}","","","","","","","","","","","",""
"[{""page_index"":0,""viewing_time"":1661},{""page_index"":1,""viewing_time"":4848}]","6511","instructions","3","142272","0.0-3.0-0.0","","","","","","","","","","","","",""
"","4658","same-different-html-trial","4","152950","0.0-3.0-1.0","","0","""sushi""","""prc_sushi.wav""","32","","","","","","","",""
"[{""page_index"":0,""viewing_time"":5834}]","5834","instructions","5","159788","0.0-3.0-2.0","","","","","","","","","","","","",""
"","10270","same-different-html","6","172065","0.0-3.0-3.0","","0","""sushi""","""prc_sushi.wav""","191","","","same","1","","","0",""
"[{""page_index"":0,""viewing_time"":2427}]","2427","instructions","7","175495","0.0-3.0-4.0","","","","","","","","","","","","",""
"","2416","same-different-html","8","179917","0.0-3.0-5.0","","0","""cat""","""prc_sushi.wav""","90","","","different","1","","","0",""
"[{""page_index"":0,""viewing_time"":1242},{""page_index"":1,""viewing_time"":1255}]","2498","instructions","9","183417","0.0-3.0-6.0","","","","","","","","","","","","",""
"","2019","same-different-html-trial","10","191456","0.0-3.0-7.0","","0","""thank you""","""prc_arigato.wav""","32","","","","","","","",""
"[{""page_index"":0,""viewing_time"":2258}]","2258","instructions","11","194718","0.0-3.0-8.0","","","","","","","","","","","","",""
"","4343","same-different-html","12","201070","0.0-3.0-9.0","","0","""thank you""","""prc_arigato.wav""","191","","","same","1","","","0",""
"","3038","same-different-html","13","207116","0.0-3.0-10.0","","0","""cat""","""prc_arigato.wav""","90","","","different","1","","","0",""
"[{""page_index"":0,""viewing_time"":1367},{""page_index"":1,""viewing_time"":6434}]","7802","instructions","14","215920","0.0-3.0-11.0","","","","","","","","","","","","",""
"","1191","same-different-html-trial","15","223128","0.0-3.0-12.0","","1598-9","""hasty""","""seka.wav""","32","hasty","SRI","","","","","","1"
"","1980","same-different-html-trial","16","232128","0.0-3.0-13.0","","1598-9","""rude""","""zuke.wav""","32","rude","SRI","","","","","","2"
"","1734","same-different-html-trial","17","240879","0.0-3.0-14.0","","1598-9","""happy""","""uki.wav""","32","happy","SRI","","","","","","3"
"","1834","same-different-html-trial","18","249729","0.0-3.0-15.0","","1598-9","""stiff""","""gowagowa.wav""","32","stiff","RI","","","","","","4"
"","1018","same-different-html-trial","19","257763","0.0-3.0-16.0","","1598-9","""fragile""","""yawa.wav""","32","fragile","NAdj","","","","","","5"
"","4923","same-different-html-trial","20","269706","0.0-3.0-17.0","","1598-9","""dejected""","""gaku.wav""","32","dejected","NRI","","","","","","6"
"","7170","same-different-html-trial","21","283893","0.0-3.0-18.0","","1598-9","""careful""","""jikkuri.wav""","32","careful","NRI","","","","","","7"
"","2913","same-different-html-trial","22","293827","0.0-3.0-19.0","","1598-9","""sullen""","""musumusu.wav""","32","sullen","RNRI","","","","","","8"
"","1943","same-different-html-trial","23","302786","0.0-3.0-20.0","","1598-9","""plump""","""potcharipotchari.wav""","32","plump","RNRI","","","","","","9"
"","1251","same-different-html-trial","24","311059","0.0-3.0-21.0","","1598-9","""disadvantaged""","""furi.wav""","32","disadvantaged","NAdj","","","","","","10"
"","1593","same-different-html-trial","25","319669","0.0-3.0-22.0","","1598-9","""noisy""","""gayagaya.wav""","32","noisy","RI","","","","","","11"
"","2131","same-different-html-trial","26","328820","0.0-3.0-23.0","","1598-9","""agitated""","""hiku.wav""","32","agitated","SRI","","","","","","12"
"","1804","same-different-html-trial","27","337640","0.0-3.0-24.0","","1598-9","""harsh""","""kokukoku.wav""","32","harsh","RNAdj","","","","","","13"
"","1601","same-different-html-trial","28","346257","0.0-3.0-25.0","","1598-9","""stupid""","""bakabaka.wav""","32","stupid","RNAdj","","","","","","14"
"","2326","same-different-html-trial","29","355601","0.0-3.0-26.0","","1598-9","""subdued""","""jimijimi.wav""","32","subdued","RNAdj","","","","","","15"
"","1442","same-different-html-trial","30","364059","0.0-3.0-27.0","","1598-9","""comfortable""","""raku.wav""","32","comfortable","NAdj","","","","","","16"
"","4970","same-different-html-trial","31","376048","0.0-3.0-28.0","","1598-9","""useless""","""damedame.wav""","32","useless","RNAdj","","","","","","17"
"","1315","same-different-html-trial","32","384381","0.0-3.0-29.0","","1598-9","""rash""","""mucha.wav""","32","rash","NAdj","","","","","","18"
"","2327","same-different-html-trial","33","393721","0.0-3.0-30.0","","1598-9","""chubby""","""bukubuku.wav""","32","chubby","RI","","","","","","19"
"","2734","same-different-html-trial","34","403474","0.0-3.0-31.0","","1598-9","""perfect""","""batchiribatchiri.wav""","32","perfect","RNRI","","","","","","20"
"","3938","same-different-html-trial","35","414429","0.0-3.0-32.0","","1598-9","""hesitant""","""mojimoji.wav""","32","hesitant","RI","","","","","","21"
"","3425","same-different-html-trial","36","426354","0.0-3.0-33.0","","1598-9","""smooth""","""nopperi.wav""","32","smooth","NRI","","","","","","22"
"","4371","same-different-html-trial","37","441297","0.0-3.0-34.0","","1598-9","""decisive""","""pishapisha.wav""","32","decisive","RNRI","","","","","","23"
"","3394","same-different-html-trial","38","451705","0.0-3.0-35.0","","1598-9","""gaping""","""poka.wav""","32","gaping","NRI","","","","","","24"
"","4291","same-different-html-trial","39","463016","0.0-3.0-36.0","","1598-9","""rude""","""zuke.wav""","32","rude","SRI","","","","","","25"
"","2446","same-different-html-trial","40","472479","0.0-3.0-37.0","","1598-9","""hesitant""","""mojimoji.wav""","32","hesitant","RI","","","","","","26"
"","12800","same-different-html-trial","41","492300","0.0-3.0-38.0","","1598-9","""dejected""","""gaku.wav""","32","dejected","NRI","","","","","","27"
"","4989","same-different-html-trial","42","504308","0.0-3.0-39.0","","1598-9","""subdued""","""jimijimi.wav""","32","subdued","RNAdj","","","","","","28"
"","8028","same-different-html-trial","43","520138","0.0-3.0-40.0","","1598-9","""comfortable""","""raku.wav""","32","comfortable","NAdj","","","","","","29"
"","4585","same-different-html-trial","44","531744","0.0-3.0-41.0","","1598-9","""careful""","""jikkuri.wav""","32","careful","NRI","","","","","","30"
"","3153","same-different-html-trial","45","541915","0.0-3.0-42.0","","1598-9","""hasty""","""seka.wav""","32","hasty","SRI","","","","","","31"
"","2144","same-different-html-trial","46","551079","0.0-3.0-43.0","","1598-9","""plump""","""potcharipotchari.wav""","32","plump","RNRI","","","","","","32"
"","5139","same-different-html-trial","47","563237","0.0-3.0-44.0","","1598-9","""perfect""","""batchiribatchiri.wav""","32","perfect","RNRI","","","","","","33"
"","5860","same-different-html-trial","48","576115","0.0-3.0-45.0","","1598-9","""smooth""","""nopperi.wav""","32","smooth","NRI","","","","","","34"
"","1830","same-different-html-trial","49","584968","0.0-3.0-46.0","","1598-9","""stupid""","""bakabaka.wav""","32","stupid","RNAdj","","","","","","35"
"","5128","same-different-html-trial","50","597117","0.0-3.0-47.0","","1598-9","""stiff""","""gowagowa.wav""","32","stiff","RI","","","","","","36"
"","2475","same-different-html-trial","51","606612","0.0-3.0-48.0","","1598-9","""decisive""","""pishapisha.wav""","32","decisive","RNRI","","","","","","37"
"","2414","same-different-html-trial","52","616047","0.0-3.0-49.0","","1598-9","""gaping""","""poka.wav""","32","gaping","NRI","","","","","","38"
"","4671","same-different-html-trial","53","627733","0.0-3.0-50.0","","1598-9","""sullen""","""musumusu.wav""","32","sullen","RNRI","","","","","","39"
"","3772","same-different-html-trial","54","638523","0.0-3.0-51.0","","1598-9","""fragile""","""yawa.wav""","32","fragile","NAdj","","","","","","40"
"","1627","same-different-html-trial","55","647165","0.0-3.0-52.0","","1598-9","""agitated""","""hiku.wav""","32","agitated","SRI","","","","","","41"
"","2805","same-different-html-trial","56","656993","0.0-3.0-53.0","","1598-9","""happy""","""uki.wav""","32","happy","SRI","","","","","","42"
"","2058","same-different-html-trial","57","666070","0.0-3.0-54.0","","1598-9","""disadvantaged""","""furi.wav""","32","disadvantaged","NAdj","","","","","","43"
"","5509","same-different-html-trial","58","679751","0.0-3.0-55.0","","1598-9","""rash""","""mucha.wav""","32","rash","NAdj","","","","","","44"
"","2688","same-different-html-trial","59","689457","0.0-3.0-56.0","","1598-9","""useless""","""damedame.wav""","32","useless","RNAdj","","","","","","45"
"","501","same-different-html-trial","60","696970","0.0-3.0-57.0","","1598-9","""chubby""","""bukubuku.wav""","32","chubby","RI","","","","","","46"
"","1676","same-different-html-trial","61","705661","0.0-3.0-58.0","","1598-9","""noisy""","""gayagaya.wav""","32","noisy","RI","","","","","","47"
"","7811","same-different-html-trial","62","724005","0.0-3.0-59.0","","1598-9","""harsh""","""kokukoku.wav""","32","harsh","RNAdj","","","","","","48"
"[{""page_index"":0,""viewing_time"":10270}]","10271","instructions","63","735279","0.0-3.0-60.0","","","","","","","","","","","","",""
"","2714","same-different-html","64","739997","0.0-3.0-61.0","","1598-9","""rash""","""gowagowa.wav""","191","stiff","RI","different","0","D","rash","Y","1"
"","2741","same-different-html","65","745747","0.0-3.0-62.0","","1598-9","""subdued""","""gaku.wav""","191","dejected","NRI","different","0","D","subdued","Y","2"
"","1887","same-different-html","66","750645","0.0-3.0-63.0","","1598-9","""smooth""","""bukubuku.wav""","90","chubby","RI","different","1","D","smooth","Y","3"
"","2780","same-different-html","67","756434","0.0-3.0-64.0","","1598-9","""agitated""","""pishapisha.wav""","191","decisive","RNRI","different","0","D","agitated","Y","4"
"","2276","same-different-html","68","761722","0.0-3.0-65.0","","1598-9","""hasty""","""kokukoku.wav""","90","harsh","RNAdj","different","1","D","hasty","Y","5"
"","4331","same-different-html","69","769070","0.0-3.0-66.0","","1598-9","""harsh""","""zuke.wav""","191","rude","SRI","different","0","D","harsh","Y","6"
"","2826","same-different-html","70","774908","0.0-3.0-67.0","","1598-9","""stupid""","""bakabaka.wav""","191","stupid","RNAdj","same","1","T","stupid","Y","7"
"","3217","same-different-html","71","781135","0.0-3.0-68.0","","1598-9","""perfect""","""batchiribatchiri.wav""","90","perfect","RNRI","same","0","T","perfect","Y","8"
"","3373","same-different-html","72","787511","0.0-3.0-69.0","","1598-9","""comfortable""","""jikkuri.wav""","191","careful","NRI","different","0","D","comfortable","Y","9"
"","2147","same-different-html","73","792669","0.0-3.0-70.0","","1598-9","""chubby""","""yawa.wav""","90","fragile","NAdj","different","1","D","chubby","Y","10"
"","2062","same-different-html","74","797739","0.0-3.0-71.0","","1598-9","""decisive""","""pishapisha.wav""","90","decisive","RNRI","same","0","T","decisive","Y","11"
"","4525","same-different-html","75","805273","0.0-3.0-72.0","","1598-9","""rude""","""mojimoji.wav""","90","hesitant","RI","different","1","D","rude","Y","12"
"","2880","same-different-html","76","811165","0.0-3.0-73.0","","1598-9","""stupid""","""hiku.wav""","90","agitated","SRI","different","1","D","stupid","Y","13"
"","5415","same-different-html","77","819586","0.0-3.0-74.0","","1598-9","""fragile""","""yawa.wav""","191","fragile","NAdj","same","1","T","fragile","Y","14"
"","3448","same-different-html","78","826042","0.0-3.0-75.0","","1598-9","""sullen""","""potcharipotchari.wav""","191","plump","RNRI","different","0","D","sullen","Y","15"
"","2683","same-different-html","79","831739","0.0-3.0-76.0","","1598-9","""fragile""","""seka.wav""","90","hasty","SRI","different","1","D","fragile","Y","16"
"","4461","same-different-html","80","839208","0.0-3.0-77.0","","1598-9","""chubby""","""bukubuku.wav""","191","chubby","RI","same","1","T","chubby","Y","17"
"","2792","same-different-html","81","845012","0.0-3.0-78.0","","1598-9","""hesitant""","""mojimoji.wav""","90","hesitant","RI","same","0","T","hesitant","Y","18"
"","2288","same-different-html","82","850312","0.0-3.0-79.0","","1598-9","""happy""","""uki.wav""","90","happy","SRI","same","0","T","happy","Y","19"
"","2495","same-different-html","83","855820","0.0-3.0-80.0","","1598-9","""happy""","""furi.wav""","191","disadvantaged","NAdj","different","0","D","happy","Y","20"
"","1868","same-different-html","84","860698","0.0-3.0-81.0","","1598-9","""careful""","""nopperi.wav""","191","smooth","NRI","different","0","D","careful","Y","21"
"","2188","same-different-html","85","865893","0.0-3.0-82.0","","1598-9","""noisy""","""gayagaya.wav""","191","noisy","RI","same","1","T","noisy","Y","22"
"","4909","same-different-html","86","873811","0.0-3.0-83.0","","1598-9","""hasty""","""seka.wav""","90","hasty","SRI","same","0","T","hasty","Y","23"
"","6557","same-different-html","87","883375","0.0-3.0-84.0","","1598-9","""subdued""","""jimijimi.wav""","191","subdued","RNAdj","same","1","T","subdued","Y","24"
"","6096","same-different-html","88","892484","0.0-3.0-85.0","","1598-9","""gaping""","""poka.wav""","191","gaping","NRI","same","1","T","gaping","Y","25"
"","3300","same-different-html","89","898796","0.0-3.0-86.0","","1598-9","""useless""","""damedame.wav""","191","useless","RNAdj","same","1","T","useless","Y","26"
"","1518","same-different-html","90","903324","0.0-3.0-87.0","","1598-9","""stiff""","""mucha.wav""","90","rash","NAdj","different","1","D","stiff","Y","27"
"","3092","same-different-html","91","909422","0.0-3.0-88.0","","1598-9","""harsh""","""kokukoku.wav""","191","harsh","RNAdj","same","1","T","harsh","Y","28"
"","4734","same-different-html","92","917163","0.0-3.0-89.0","","1598-9","""useless""","""batchiribatchiri.wav""","191","perfect","RNRI","different","0","D","useless","Y","29"
"","3113","same-different-html","93","923289","0.0-3.0-90.0","","1598-9","""decisive""","""jimijimi.wav""","191","subdued","RNAdj","different","0","D","decisive","Y","30"
"","14985","same-different-html","94","941283","0.0-3.0-91.0","","1598-9","""hesitant""","""raku.wav""","191","comfortable","NAdj","different","0","D","hesitant","Y","31"
"","3268","same-different-html","95","947562","0.0-3.0-92.0","","1598-9","""disadvantaged""","""musumusu.wav""","90","sullen","RNRI","different","1","D","disadvantaged","Y","32"
"","4389","same-different-html","96","954960","0.0-3.0-93.0","","1598-9","""rude""","""zuke.wav""","90","rude","SRI","same","0","T","rude","Y","33"
"","3764","same-different-html","97","961736","0.0-3.0-94.0","","1598-9","""disadvantaged""","""furi.wav""","191","disadvantaged","NAdj","same","1","T","disadvantaged","Y","34"
"","2323","same-different-html","98","967070","0.0-3.0-95.0","","1598-9","""comfortable""","""raku.wav""","90","comfortable","NAdj","same","0","T","comfortable","Y","35"
"","3439","same-different-html","99","973522","0.0-3.0-96.0","","1598-9","""dejected""","""gaku.wav""","191","dejected","NRI","same","1","T","dejected","Y","36"
"","14823","same-different-html","100","994011","0.0-3.0-97.0","","1598-9","""agitated""","""hiku.wav""","90","agitated","SRI","same","0","T","agitated","Y","37"
"","3071","same-different-html","101","1000091","0.0-3.0-98.0","","1598-9","""plump""","""potcharipotchari.wav""","191","plump","RNRI","same","1","T","plump","Y","38"
"","4735","same-different-html","102","1007836","0.0-3.0-99.0","","1598-9","""smooth""","""nopperi.wav""","90","smooth","NRI","same","0","T","smooth","Y","39"
"","1749","same-different-html","103","1012595","0.0-3.0-100.0","","1598-9","""gaping""","""gayagaya.wav""","90","noisy","RI","different","1","D","gaping","Y","40"
"","2290","same-different-html","104","1017899","0.0-3.0-101.0","","1598-9","""noisy""","""poka.wav""","90","gaping","NRI","different","1","D","noisy","Y","41"
"","1832","same-different-html","105","1022743","0.0-3.0-102.0","","1598-9","""careful""","""jikkuri.wav""","191","careful","NRI","same","1","T","careful","Y","42"
"","3182","same-different-html","106","1028938","0.0-3.0-103.0","","1598-9","""plump""","""damedame.wav""","90","useless","RNAdj","different","1","D","plump","Y","43"
"","2579","same-different-html","107","1034526","0.0-3.0-104.0","","1598-9","""sullen""","""musumusu.wav""","191","sullen","RNRI","same","1","T","sullen","Y","44"
"","1589","same-different-html","108","1039128","0.0-3.0-105.0","","1598-9","""perfect""","""uki.wav""","90","happy","SRI","different","1","D","perfect","Y","45"
"","1979","same-different-html","109","1044117","0.0-3.0-106.0","","1598-9","""dejected""","""bakabaka.wav""","191","stupid","RNAdj","different","0","D","dejected","Y","46"
"","2326","same-different-html","110","1049457","0.0-3.0-107.0","","1598-9","""stiff""","""gowagowa.wav""","191","stiff","RI","same","1","T","stiff","Y","47"
"","1371","same-different-html","111","1053840","0.0-3.0-108.0","","1598-9","""rash""","""mucha.wav""","90","rash","NAdj","same","0","T","rash","Y","48"
"[{""page_index"":0,""viewing_time"":1925}]","1925","instructions","112","1056770","0.0-3.0-109.0","","","","","","","","","","","","",""
