"view_history","rt","trial_type","trial_index","time_elapsed","internal_node_id","responses","Id","word","sound","key_press","TrueMeaning","WordType","answer","correct","TrialType","TargetMeaning","LegalTrial","trialNum"
"[{""page_index"":0,""viewing_time"":3605}]","3605","instructions","0","3606","0.0-0.0","","","","","","","","","","","","",""
"[{""page_index"":0,""viewing_time"":1726},{""page_index"":1,""viewing_time"":1337},{""page_index"":2,""viewing_time"":1450},{""page_index"":3,""viewing_time"":4056},{""page_index"":4,""viewing_time"":21068}]","29637","instructions","1","33244","0.0-1.0","","","","","","","","","","","","",""
"","13048","survey-multi-choice","2","46294","0.0-2.0","{""Q0"":""Yes"",""Q1"":""Yes"",""Q2"":""Yes"",""Q3"":""Yes"",""Q4"":""Yes""}","","","","","","","","","","","",""
"[{""page_index"":0,""viewing_time"":1567},{""page_index"":1,""viewing_time"":4428}]","5995","instructions","3","52290","0.0-3.0-0.0","","","","","","","","","","","","",""
"","5574","same-different-html-trial","4","63875","0.0-3.0-1.0","","0","""sushi""","""prc_sushi.wav""","32","","","","","","","",""
"[{""page_index"":0,""viewing_time"":3719}]","3719","instructions","5","68596","0.0-3.0-2.0","","","","","","","","","","","","",""
"","9184","same-different-html","6","79786","0.0-3.0-3.0","","0","""sushi""","""prc_sushi.wav""","191","","","same","1","","","0",""
"[{""page_index"":0,""viewing_time"":3388}]","3388","instructions","7","84176","0.0-3.0-4.0","","","","","","","","","","","","",""
"","3159","same-different-html","8","89338","0.0-3.0-5.0","","0","""cat""","""prc_sushi.wav""","90","","","different","1","","","0",""
"[{""page_index"":0,""viewing_time"":3401},{""page_index"":1,""viewing_time"":1733}]","5134","instructions","9","95475","0.0-3.0-6.0","","","","","","","","","","","","",""
"","1936","same-different-html-trial","10","103417","0.0-3.0-7.0","","0","""thank you""","""prc_arigato.wav""","32","","","","","","","",""
"[{""page_index"":0,""viewing_time"":2837}]","2837","instructions","11","107256","0.0-3.0-8.0","","","","","","","","","","","","",""
"","3590","same-different-html","12","112850","0.0-3.0-9.0","","0","""thank you""","""prc_arigato.wav""","191","","","same","1","","","0",""
"","2981","same-different-html","13","118834","0.0-3.0-10.0","","0","""cat""","""prc_arigato.wav""","90","","","different","1","","","0",""
"[{""page_index"":0,""viewing_time"":2053},{""page_index"":1,""viewing_time"":12527}]","14581","instructions","14","134417","0.0-3.0-11.0","","","","","","","","","","","","",""
"","5293","same-different-html-trial","15","145715","0.0-3.0-12.0","","6285-9","""hasty""","""sekaseka.wav""","32","hasty","RI","","","","","","1"
"","5100","same-different-html-trial","16","157818","0.0-3.0-13.0","","6285-9","""wobbly""","""yurayura.wav""","32","wobbly","RI","","","","","","2"
"","2618","same-different-html-trial","17","167442","0.0-3.0-14.0","","6285-9","""useless""","""damedame.wav""","32","useless","RNAdj","","","","","","3"
"","2762","same-different-html-trial","18","177211","0.0-3.0-15.0","","6285-9","""disadvantaged""","""furi.wav""","32","disadvantaged","NAdj","","","","","","4"
"","3097","same-different-html-trial","19","187315","0.0-3.0-16.0","","6285-9","""dejected""","""gakugaku.wav""","32","dejected","RNRI","","","","","","5"
"","2296","same-different-html-trial","20","196619","0.0-3.0-17.0","","6285-9","""glossy""","""tsuyatsuya.wav""","32","glossy","RI","","","","","","6"
"","2113","same-different-html-trial","21","205739","0.0-3.0-18.0","","6285-9","""impossible""","""murimuri.wav""","32","impossible","RNAdj","","","","","","7"
"","2803","same-different-html-trial","22","215547","0.0-3.0-19.0","","6285-9","""rare""","""mare.wav""","32","rare","NAdj","","","","","","8"
"","1821","same-different-html-trial","23","224379","0.0-3.0-20.0","","6285-9","""sudden""","""pata.wav""","32","sudden","NRI","","","","","","9"
"","1963","same-different-html-trial","24","233347","0.0-3.0-21.0","","6285-9","""stupid""","""baka.wav""","32","stupid","NAdj","","","","","","10"
"","2206","same-different-html-trial","25","242562","0.0-3.0-22.0","","6285-9","""gaudy""","""kabikabi.wav""","32","gaudy","RNAdj","","","","","","11"
"","1873","same-different-html-trial","26","251442","0.0-3.0-23.0","","6285-9","""sloppy""","""zatsu.wav""","32","sloppy","NAdj","","","","","","12"
"","2225","same-different-html-trial","27","260675","0.0-3.0-24.0","","6285-9","""careful""","""jikkuri.wav""","32","careful","NRI","","","","","","13"
"","2475","same-different-html-trial","28","270155","0.0-3.0-25.0","","6285-9","""nonchalantly""","""kero.wav""","32","nonchalantly","NRI","","","","","","14"
"","2442","same-different-html-trial","29","279602","0.0-3.0-26.0","","6285-9","""smug""","""kizakiza.wav""","32","smug","RNAdj","","","","","","15"
"","1832","same-different-html-trial","30","288442","0.0-3.0-27.0","","6285-9","""agitated""","""hiku.wav""","32","agitated","SRI","","","","","","16"
"","2344","same-different-html-trial","31","297802","0.0-3.0-28.0","","6285-9","""shivering""","""buru.wav""","32","shivering","SRI","","","","","","17"
"","1905","same-different-html-trial","32","306714","0.0-3.0-29.0","","6285-9","""noisy""","""gaya.wav""","32","noisy","SRI","","","","","","18"
"","3153","same-different-html-trial","33","316874","0.0-3.0-30.0","","6285-9","""whispering""","""hisohiso.wav""","32","whispering","RI","","","","","","19"
"","2278","same-different-html-trial","34","326163","0.0-3.0-31.0","","6285-9","""perfect""","""batchiribatchiri.wav""","32","perfect","RNRI","","","","","","20"
"","1718","same-different-html-trial","35","334890","0.0-3.0-32.0","","6285-9","""happy""","""uki.wav""","32","happy","SRI","","","","","","21"
"","1649","same-different-html-trial","36","343546","0.0-3.0-33.0","","6285-9","""whole""","""goso.wav""","32","whole","NRI","","","","","","22"
"","2259","same-different-html-trial","37","352810","0.0-3.0-34.0","","6285-9","""crowded""","""bisshiribisshiri.wav""","32","crowded","RNRI","","","","","","23"
"","2857","same-different-html-trial","38","362675","0.0-3.0-35.0","","6285-9","""supple""","""shinnarishinnari.wav""","32","supple","RNRI","","","","","","24"
"","4530","same-different-html-trial","39","374218","0.0-3.0-36.0","","6285-9","""useless""","""damedame.wav""","32","useless","RNAdj","","","","","","25"
"","672","same-different-html-trial","40","381898","0.0-3.0-37.0","","6285-9","""smug""","""kizakiza.wav""","32","smug","RNAdj","","","","","","26"
"","1800","same-different-html-trial","41","390708","0.0-3.0-38.0","","6285-9","""careful""","""jikkuri.wav""","32","careful","NRI","","","","","","27"
"","2295","same-different-html-trial","42","400011","0.0-3.0-39.0","","6285-9","""disadvantaged""","""furi.wav""","32","disadvantaged","NAdj","","","","","","28"
"","4254","same-different-html-trial","43","411275","0.0-3.0-40.0","","6285-9","""wobbly""","""yurayura.wav""","32","wobbly","RI","","","","","","29"
"","1770","same-different-html-trial","44","420051","0.0-3.0-41.0","","6285-9","""agitated""","""hiku.wav""","32","agitated","SRI","","","","","","30"
"","2280","same-different-html-trial","45","429338","0.0-3.0-42.0","","6285-9","""sudden""","""pata.wav""","32","sudden","NRI","","","","","","31"
"","13969","same-different-html-trial","46","450315","0.0-3.0-43.0","","6285-9","""sloppy""","""zatsu.wav""","32","sloppy","NAdj","","","","","","32"
"","2021","same-different-html-trial","47","459362","0.0-3.0-44.0","","6285-9","""shivering""","""buru.wav""","32","shivering","SRI","","","","","","33"
"","5053","same-different-html-trial","48","471422","0.0-3.0-45.0","","6285-9","""impossible""","""murimuri.wav""","32","impossible","RNAdj","","","","","","34"
"","1858","same-different-html-trial","49","480291","0.0-3.0-46.0","","6285-9","""hasty""","""sekaseka.wav""","32","hasty","RI","","","","","","35"
"","1481","same-different-html-trial","50","488779","0.0-3.0-47.0","","6285-9","""happy""","""uki.wav""","32","happy","SRI","","","","","","36"
"","1953","same-different-html-trial","51","497739","0.0-3.0-48.0","","6285-9","""glossy""","""tsuyatsuya.wav""","32","glossy","RI","","","","","","37"
"","2636","same-different-html-trial","52","507379","0.0-3.0-49.0","","6285-9","""crowded""","""bisshiribisshiri.wav""","32","crowded","RNRI","","","","","","38"
"","2257","same-different-html-trial","53","516643","0.0-3.0-50.0","","6285-9","""whispering""","""hisohiso.wav""","32","whispering","RI","","","","","","39"
"","1306","same-different-html-trial","54","524955","0.0-3.0-51.0","","6285-9","""stupid""","""baka.wav""","32","stupid","NAdj","","","","","","40"
"","3816","same-different-html-trial","55","535778","0.0-3.0-52.0","","6285-9","""dejected""","""gakugaku.wav""","32","dejected","RNRI","","","","","","41"
"","3054","same-different-html-trial","56","545842","0.0-3.0-53.0","","6285-9","""whole""","""goso.wav""","32","whole","NRI","","","","","","42"
"","1666","same-different-html-trial","57","554514","0.0-3.0-54.0","","6285-9","""nonchalantly""","""kero.wav""","32","nonchalantly","NRI","","","","","","43"
"","5025","same-different-html-trial","58","566546","0.0-3.0-55.0","","6285-9","""rare""","""mare.wav""","32","rare","NAdj","","","","","","44"
"","696","same-different-html-trial","59","574250","0.0-3.0-56.0","","6285-9","""gaudy""","""kabikabi.wav""","32","gaudy","RNAdj","","","","","","45"
"","728","same-different-html-trial","60","581986","0.0-3.0-57.0","","6285-9","""supple""","""shinnarishinnari.wav""","32","supple","RNRI","","","","","","46"
"","2570","same-different-html-trial","61","591563","0.0-3.0-58.0","","6285-9","""noisy""","""gaya.wav""","32","noisy","SRI","","","","","","47"
"","3361","same-different-html-trial","62","601933","0.0-3.0-59.0","","6285-9","""perfect""","""batchiribatchiri.wav""","32","perfect","RNRI","","","","","","48"
"[{""page_index"":0,""viewing_time"":12439}]","12440","instructions","63","615376","0.0-3.0-60.0","","","","","","","","","","","","",""
"","4481","same-different-html","64","621859","0.0-3.0-61.0","","6285-9","""disadvantaged""","""damedame.wav""","90","useless","RNAdj","different","1","D","disadvantaged","Y","1"
"","2901","same-different-html","65","627764","0.0-3.0-62.0","","6285-9","""happy""","""uki.wav""","191","happy","SRI","same","1","T","happy","Y","2"
"","3687","same-different-html","66","634459","0.0-3.0-63.0","","6285-9","""agitated""","""jikkuri.wav""","191","careful","NRI","different","0","D","agitated","Y","3"
"","3109","same-different-html","67","640573","0.0-3.0-64.0","","6285-9","""crowded""","""bisshiribisshiri.wav""","191","crowded","RNRI","same","1","T","crowded","Y","4"
"","2891","same-different-html","68","646469","0.0-3.0-65.0","","6285-9","""noisy""","""mare.wav""","90","rare","NAdj","different","1","D","noisy","Y","5"
"","3186","same-different-html","69","652660","0.0-3.0-66.0","","6285-9","""whispering""","""hisohiso.wav""","191","whispering","RI","same","1","T","whispering","Y","6"
"","5368","same-different-html","70","661035","0.0-3.0-67.0","","6285-9","""glossy""","""tsuyatsuya.wav""","191","glossy","RI","same","1","T","glossy","Y","7"
"","2955","same-different-html","71","666995","0.0-3.0-68.0","","6285-9","""perfect""","""batchiribatchiri.wav""","191","perfect","RNRI","same","1","T","perfect","Y","8"
"","2930","same-different-html","72","672931","0.0-3.0-69.0","","6285-9","""whole""","""baka.wav""","90","stupid","NAdj","different","1","D","whole","Y","9"
"","3058","same-different-html","73","678995","0.0-3.0-70.0","","6285-9","""glossy""","""bisshiribisshiri.wav""","90","crowded","RNRI","different","1","D","glossy","Y","10"
"","3026","same-different-html","74","685026","0.0-3.0-71.0","","6285-9","""whole""","""goso.wav""","191","whole","NRI","same","1","T","whole","Y","11"
"","2851","same-different-html","75","690883","0.0-3.0-72.0","","6285-9","""shivering""","""buru.wav""","191","shivering","SRI","same","1","T","shivering","Y","12"
"","3062","same-different-html","76","696947","0.0-3.0-73.0","","6285-9","""useless""","""yurayura.wav""","90","wobbly","RI","different","1","D","useless","Y","13"
"","3429","same-different-html","77","703379","0.0-3.0-74.0","","6285-9","""smug""","""tsuyatsuya.wav""","90","glossy","RI","different","1","D","smug","Y","14"
"","7362","same-different-html","78","713746","0.0-3.0-75.0","","6285-9","""gaudy""","""kabikabi.wav""","191","gaudy","RNAdj","same","1","T","gaudy","Y","15"
"","2818","same-different-html","79","719571","0.0-3.0-76.0","","6285-9","""wobbly""","""goso.wav""","90","whole","NRI","different","1","D","wobbly","Y","16"
"","2939","same-different-html","80","725515","0.0-3.0-77.0","","6285-9","""shivering""","""hisohiso.wav""","90","whispering","RI","different","1","D","shivering","Y","17"
"","2851","same-different-html","81","731372","0.0-3.0-78.0","","6285-9","""hasty""","""sekaseka.wav""","191","hasty","RI","same","1","T","hasty","Y","18"
"","2799","same-different-html","82","737172","0.0-3.0-79.0","","6285-9","""wobbly""","""yurayura.wav""","191","wobbly","RI","same","1","T","wobbly","Y","19"
"","2809","same-different-html","83","742988","0.0-3.0-80.0","","6285-9","""rare""","""mare.wav""","191","rare","NAdj","same","1","T","rare","Y","20"
"","5972","same-different-html","84","751965","0.0-3.0-81.0","","6285-9","""impossible""","""murimuri.wav""","191","impossible","RNAdj","same","1","T","impossible","Y","21"
"","2940","same-different-html","85","757907","0.0-3.0-82.0","","6285-9","""hasty""","""shinnarishinnari.wav""","90","supple","RNRI","different","1","D","hasty","Y","22"
"","3206","same-different-html","86","764124","0.0-3.0-83.0","","6285-9","""disadvantaged""","""furi.wav""","191","disadvantaged","NAdj","same","1","T","disadvantaged","Y","23"
"","2978","same-different-html","87","770107","0.0-3.0-84.0","","6285-9","""rare""","""gaya.wav""","90","noisy","SRI","different","1","D","rare","Y","24"
"","2777","same-different-html","88","775892","0.0-3.0-85.0","","6285-9","""careful""","""jikkuri.wav""","191","careful","NRI","same","1","T","careful","Y","25"
"","2892","same-different-html","89","781789","0.0-3.0-86.0","","6285-9","""impossible""","""kizakiza.wav""","90","smug","RNAdj","different","1","D","impossible","Y","26"
"","2891","same-different-html","90","787685","0.0-3.0-87.0","","6285-9","""dejected""","""pata.wav""","90","sudden","NRI","different","1","D","dejected","Y","27"
"","2915","same-different-html","91","793605","0.0-3.0-88.0","","6285-9","""dejected""","""gakugaku.wav""","191","dejected","RNRI","same","1","T","dejected","Y","28"
"","3053","same-different-html","92","799660","0.0-3.0-89.0","","6285-9","""agitated""","""hiku.wav""","90","agitated","SRI","same","0","T","agitated","Y","29"
"","2667","same-different-html","93","805331","0.0-3.0-90.0","","6285-9","""sudden""","""hiku.wav""","90","agitated","SRI","different","1","D","sudden","Y","30"
"","2844","same-different-html","94","811179","0.0-3.0-91.0","","6285-9","""stupid""","""kero.wav""","90","nonchalantly","NRI","different","1","D","stupid","Y","31"
"","3563","same-different-html","95","817747","0.0-3.0-92.0","","6285-9","""sloppy""","""zatsu.wav""","90","sloppy","NAdj","same","0","T","sloppy","Y","32"
"","2892","same-different-html","96","823644","0.0-3.0-93.0","","6285-9","""whispering""","""gakugaku.wav""","90","dejected","RNRI","different","1","D","whispering","Y","33"
"","2856","same-different-html","97","829507","0.0-3.0-94.0","","6285-9","""perfect""","""furi.wav""","90","disadvantaged","NAdj","different","1","D","perfect","Y","34"
"","3142","same-different-html","98","835652","0.0-3.0-95.0","","6285-9","""nonchalantly""","""buru.wav""","191","shivering","SRI","different","0","D","nonchalantly","Y","35"
"","3333","same-different-html","99","841988","0.0-3.0-96.0","","6285-9","""supple""","""batchiribatchiri.wav""","90","perfect","RNRI","different","1","D","supple","Y","36"
"","5462","same-different-html","100","850452","0.0-3.0-97.0","","6285-9","""gaudy""","""sekaseka.wav""","90","hasty","RI","different","1","D","gaudy","Y","37"
"","2921","same-different-html","101","856380","0.0-3.0-98.0","","6285-9","""sloppy""","""murimuri.wav""","90","impossible","RNAdj","different","1","D","sloppy","Y","38"
"","2932","same-different-html","102","862316","0.0-3.0-99.0","","6285-9","""happy""","""kabikabi.wav""","90","gaudy","RNAdj","different","1","D","happy","Y","39"
"","2748","same-different-html","103","868067","0.0-3.0-100.0","","6285-9","""crowded""","""zatsu.wav""","90","sloppy","NAdj","different","1","D","crowded","Y","40"
"","4427","same-different-html","104","875500","0.0-3.0-101.0","","6285-9","""smug""","""kizakiza.wav""","191","smug","RNAdj","same","1","T","smug","Y","41"
"","2789","same-different-html","105","881292","0.0-3.0-102.0","","6285-9","""nonchalantly""","""kero.wav""","90","nonchalantly","NRI","same","0","T","nonchalantly","Y","42"
"","3533","same-different-html","106","887830","0.0-3.0-103.0","","6285-9","""supple""","""shinnarishinnari.wav""","191","supple","RNRI","same","1","T","supple","Y","43"
"","2802","same-different-html","107","893636","0.0-3.0-104.0","","6285-9","""stupid""","""baka.wav""","191","stupid","NAdj","same","1","T","stupid","Y","44"
"","2852","same-different-html","108","899492","0.0-3.0-105.0","","6285-9","""careful""","""uki.wav""","90","happy","SRI","different","1","D","careful","Y","45"
"","2916","same-different-html","109","905412","0.0-3.0-106.0","","6285-9","""sudden""","""pata.wav""","191","sudden","NRI","same","1","T","sudden","Y","46"
"","2926","same-different-html","110","911340","0.0-3.0-107.0","","6285-9","""useless""","""damedame.wav""","191","useless","RNAdj","same","1","T","useless","Y","47"
"","2948","same-different-html","111","917293","0.0-3.0-108.0","","6285-9","""noisy""","""gaya.wav""","191","noisy","SRI","same","1","T","noisy","Y","48"
"[{""page_index"":0,""viewing_time"":24262}]","24262","instructions","112","942556","0.0-3.0-109.0","","","","","","","","","","","","",""
