"view_history","rt","trial_type","trial_index","time_elapsed","internal_node_id","responses","Id","word","sound","key_press","TrueMeaning","WordType","answer","correct","TrialType","TargetMeaning","LegalTrial","trialNum"
"[{""page_index"":0,""viewing_time"":24631}]","24631","instructions","0","24632","0.0-0.0","","","","","","","","","","","","",""
"[{""page_index"":0,""viewing_time"":1991},{""page_index"":1,""viewing_time"":4079},{""page_index"":2,""viewing_time"":3913},{""page_index"":3,""viewing_time"":8471},{""page_index"":4,""viewing_time"":56392}]","74847","instructions","1","99480","0.0-1.0","","","","","","","","","","","","",""
"","16852","survey-multi-choice","2","116336","0.0-2.0","{""Q0"":""Yes"",""Q1"":""Yes"",""Q2"":""Yes"",""Q3"":""Yes"",""Q4"":""Yes""}","","","","","","","","","","","",""
"[{""page_index"":0,""viewing_time"":2198},{""page_index"":1,""viewing_time"":4393}]","6591","instructions","3","122928","0.0-3.0-0.0","","","","","","","","","","","","",""
"","6689","same-different-html-trial","4","135630","0.0-3.0-1.0","","0","""sushi""","""prc_sushi.wav""","32","","","","","","","",""
"[{""page_index"":0,""viewing_time"":10490}]","10490","instructions","5","147121","0.0-3.0-2.0","","","","","","","","","","","","",""
"","5623","same-different-html","6","154749","0.0-3.0-3.0","","0","""sushi""","""prc_sushi.wav""","191","","","same","1","","","0",""
"[{""page_index"":0,""viewing_time"":4439}]","4439","instructions","7","160191","0.0-3.0-4.0","","","","","","","","","","","","",""
"","4321","same-different-html","8","166517","0.0-3.0-5.0","","0","""cat""","""prc_sushi.wav""","90","","","different","1","","","0",""
"[{""page_index"":0,""viewing_time"":6746},{""page_index"":1,""viewing_time"":1496}]","8242","instructions","9","175758","0.0-3.0-6.0","","","","","","","","","","","","",""
"","3830","same-different-html-trial","10","185597","0.0-3.0-7.0","","0","""thank you""","""prc_arigato.wav""","32","","","","","","","",""
"[{""page_index"":0,""viewing_time"":7027}]","7027","instructions","11","193624","0.0-3.0-8.0","","","","","","","","","","","","",""
"","3507","same-different-html","12","199133","0.0-3.0-9.0","","0","""thank you""","""prc_arigato.wav""","191","","","same","1","","","0",""
"","3130","same-different-html","13","205269","0.0-3.0-10.0","","0","""cat""","""prc_arigato.wav""","90","","","different","1","","","0",""
"[{""page_index"":0,""viewing_time"":2154},{""page_index"":1,""viewing_time"":15354}]","17508","instructions","14","223776","0.0-3.0-11.0","","","","","","","","","","","","",""
"","4454","same-different-html-trial","15","234238","0.0-3.0-12.0","","1254-3","""dejected""","""gakugaku.wav""","32","dejected","RNRI","","","","","","1"
"","2461","same-different-html-trial","16","243709","0.0-3.0-13.0","","1254-3","""smooth""","""nopperinopperi.wav""","32","smooth","RNRI","","","","","","2"
"","8474","same-different-html-trial","17","259189","0.0-3.0-14.0","","1254-3","""messy""","""gochagocha.wav""","32","messy","RI","","","","","","3"
"","3564","same-different-html-trial","18","269758","0.0-3.0-15.0","","1254-3","""fast asleep""","""gussuri.wav""","32","fast asleep","NRI","","","","","","4"
"","3502","same-different-html-trial","19","280270","0.0-3.0-16.0","","1254-3","""vulgar""","""zoku.wav""","32","vulgar","NAdj","","","","","","5"
"","2186","same-different-html-trial","20","289460","0.0-3.0-17.0","","1254-3","""steaming""","""hoka.wav""","32","steaming","SRI","","","","","","6"
"","4987","same-different-html-trial","21","301452","0.0-3.0-18.0","","1254-3","""harsh""","""kokukoku.wav""","32","harsh","RNAdj","","","","","","7"
"","2721","same-different-html-trial","22","311181","0.0-3.0-19.0","","1254-3","""to change ocmpletely""","""gara.wav""","32","to change ocmpletely","NRI","","","","","","8"
"","5312","same-different-html-trial","23","323501","0.0-3.0-20.0","","1254-3","""resolute""","""bassari.wav""","32","resolute","NRI","","","","","","9"
"","1819","same-different-html-trial","24","332323","0.0-3.0-21.0","","1254-3","""smug""","""kizakiza.wav""","32","smug","RNAdj","","","","","","10"
"","88","same-different-html-trial","25","339419","0.0-3.0-22.0","","1254-3","""energetic""","""kibi.wav""","32","energetic","SRI","","","","","","11"
"","4010","same-different-html-trial","26","350438","0.0-3.0-23.0","","1254-3","""worn out""","""boroboro.wav""","32","worn out","RI","","","","","","12"
"","5256","same-different-html-trial","27","362702","0.0-3.0-24.0","","1254-3","""stupid""","""bakabaka.wav""","32","stupid","RNAdj","","","","","","13"
"","2777","same-different-html-trial","28","372486","0.0-3.0-25.0","","1254-3","""sullen""","""musu.wav""","32","sullen","NRI","","","","","","14"
"","2370","same-different-html-trial","29","381863","0.0-3.0-26.0","","1254-3","""rash""","""mucha.wav""","32","rash","NAdj","","","","","","15"
"","5618","same-different-html-trial","30","394485","0.0-3.0-27.0","","1254-3","""sloppy""","""zatsuzatsu.wav""","32","sloppy","RNAdj","","","","","","16"
"","2307","same-different-html-trial","31","403797","0.0-3.0-28.0","","1254-3","""glossy""","""tsuyatsuya.wav""","32","glossy","RI","","","","","","17"
"","3081","same-different-html-trial","32","413887","0.0-3.0-29.0","","1254-3","""chatty""","""berabera.wav""","32","chatty","RI","","","","","","18"
"","2714","same-different-html-trial","33","423605","0.0-3.0-30.0","","1254-3","""fragile""","""yawa.wav""","32","fragile","NAdj","","","","","","19"
"","2595","same-different-html-trial","34","433207","0.0-3.0-31.0","","1254-3","""humid""","""mushi.wav""","32","humid","SRI","","","","","","20"
"","2683","same-different-html-trial","35","442901","0.0-3.0-32.0","","1254-3","""supple""","""shinnarishinnari.wav""","32","supple","RNRI","","","","","","21"
"","2161","same-different-html-trial","36","452070","0.0-3.0-33.0","","1254-3","""noisy""","""gaya.wav""","32","noisy","SRI","","","","","","22"
"","2054","same-different-html-trial","37","461132","0.0-3.0-34.0","","1254-3","""rare""","""mare.wav""","32","rare","NAdj","","","","","","23"
"","2255","same-different-html-trial","38","470396","0.0-3.0-35.0","","1254-3","""nonchalantly""","""kerokero.wav""","32","nonchalantly","RNRI","","","","","","24"
"","1818","same-different-html-trial","39","479221","0.0-3.0-36.0","","1254-3","""rash""","""mucha.wav""","32","rash","NAdj","","","","","","25"
"","2384","same-different-html-trial","40","488613","0.0-3.0-37.0","","1254-3","""noisy""","""gaya.wav""","32","noisy","SRI","","","","","","26"
"","2609","same-different-html-trial","41","498230","0.0-3.0-38.0","","1254-3","""sullen""","""musu.wav""","32","sullen","NRI","","","","","","27"
"","3200","same-different-html-trial","42","508438","0.0-3.0-39.0","","1254-3","""smooth""","""nopperinopperi.wav""","32","smooth","RNRI","","","","","","28"
"","523","same-different-html-trial","43","515972","0.0-3.0-40.0","","1254-3","""to change ocmpletely""","""gara.wav""","32","to change ocmpletely","NRI","","","","","","29"
"","3234","same-different-html-trial","44","526215","0.0-3.0-41.0","","1254-3","""stupid""","""bakabaka.wav""","32","stupid","RNAdj","","","","","","30"
"","3847","same-different-html-trial","45","537070","0.0-3.0-42.0","","1254-3","""rare""","""mare.wav""","32","rare","NAdj","","","","","","31"
"","4081","same-different-html-trial","46","548158","0.0-3.0-43.0","","1254-3","""fast asleep""","""gussuri.wav""","32","fast asleep","NRI","","","","","","32"
"","2759","same-different-html-trial","47","557926","0.0-3.0-44.0","","1254-3","""glossy""","""tsuyatsuya.wav""","32","glossy","RI","","","","","","33"
"","3400","same-different-html-trial","48","568335","0.0-3.0-45.0","","1254-3","""nonchalantly""","""kerokero.wav""","32","nonchalantly","RNRI","","","","","","34"
"","2009","same-different-html-trial","49","577350","0.0-3.0-46.0","","1254-3","""messy""","""gochagocha.wav""","32","messy","RI","","","","","","35"
"","1255","same-different-html-trial","50","585613","0.0-3.0-47.0","","1254-3","""vulgar""","""zoku.wav""","32","vulgar","NAdj","","","","","","36"
"","2056","same-different-html-trial","51","594677","0.0-3.0-48.0","","1254-3","""dejected""","""gakugaku.wav""","32","dejected","RNRI","","","","","","37"
"","4851","same-different-html-trial","52","606535","0.0-3.0-49.0","","1254-3","""energetic""","""kibi.wav""","32","energetic","SRI","","","","","","38"
"","1720","same-different-html-trial","53","615262","0.0-3.0-50.0","","1254-3","""fragile""","""yawa.wav""","32","fragile","NAdj","","","","","","39"
"","5784","same-different-html-trial","54","628052","0.0-3.0-51.0","","1254-3","""supple""","""shinnarishinnari.wav""","32","supple","RNRI","","","","","","40"
"","5549","same-different-html-trial","55","640607","0.0-3.0-52.0","","1254-3","""smug""","""kizakiza.wav""","32","smug","RNAdj","","","","","","41"
"","5488","same-different-html-trial","56","653103","0.0-3.0-53.0","","1254-3","""harsh""","""kokukoku.wav""","32","harsh","RNAdj","","","","","","42"
"","3258","same-different-html-trial","57","663369","0.0-3.0-54.0","","1254-3","""humid""","""mushi.wav""","32","humid","SRI","","","","","","43"
"","3371","same-different-html-trial","58","673743","0.0-3.0-55.0","","1254-3","""chatty""","""berabera.wav""","32","chatty","RI","","","","","","44"
"","3630","same-different-html-trial","59","684384","0.0-3.0-56.0","","1254-3","""resolute""","""bassari.wav""","32","resolute","NRI","","","","","","45"
"","2703","same-different-html-trial","60","694095","0.0-3.0-57.0","","1254-3","""steaming""","""hoka.wav""","32","steaming","SRI","","","","","","46"
"","2980","same-different-html-trial","61","704081","0.0-3.0-58.0","","1254-3","""sloppy""","""zatsuzatsu.wav""","32","sloppy","RNAdj","","","","","","47"
"","1950","same-different-html-trial","62","713038","0.0-3.0-59.0","","1254-3","""worn out""","""boroboro.wav""","32","worn out","RI","","","","","","48"
"[{""page_index"":0,""viewing_time"":21217}]","21219","instructions","63","735258","0.0-3.0-60.0","","","","","","","","","","","","",""
"","3274","same-different-html","64","740535","0.0-3.0-61.0","","1254-3","""fast asleep""","""gussuri.wav""","191","fast asleep","NRI","same","1","T","fast asleep","Y","1"
"","3459","same-different-html","65","747000","0.0-3.0-62.0","","1254-3","""harsh""","""kokukoku.wav""","191","harsh","RNAdj","same","1","T","harsh","Y","2"
"","2377","same-different-html","66","752382","0.0-3.0-63.0","","1254-3","""noisy""","""mushi.wav""","90","humid","SRI","different","1","D","noisy","Y","3"
"","4449","same-different-html","67","759838","0.0-3.0-64.0","","1254-3","""nonchalantly""","""tsuyatsuya.wav""","90","glossy","RI","different","1","D","nonchalantly","Y","4"
"","2780","same-different-html","68","765622","0.0-3.0-65.0","","1254-3","""steaming""","""hoka.wav""","191","steaming","SRI","same","1","T","steaming","Y","5"
"","3126","same-different-html","69","771751","0.0-3.0-66.0","","1254-3","""to change ocmpletely""","""gara.wav""","90","to change ocmpletely","NRI","same","0","T","to change ocmpletely","Y","6"
"","3157","same-different-html","70","777911","0.0-3.0-67.0","","1254-3","""worn out""","""nopperinopperi.wav""","90","smooth","RNRI","different","1","D","worn out","Y","7"
"","2909","same-different-html","71","783824","0.0-3.0-68.0","","1254-3","""humid""","""mushi.wav""","191","humid","SRI","same","1","T","humid","Y","8"
"","3740","same-different-html","72","790567","0.0-3.0-69.0","","1254-3","""to change ocmpletely""","""musu.wav""","191","sullen","NRI","different","0","D","to change ocmpletely","Y","9"
"","3589","same-different-html","73","797160","0.0-3.0-70.0","","1254-3","""messy""","""gochagocha.wav""","90","messy","RI","same","0","T","messy","Y","10"
"","3067","same-different-html","74","803232","0.0-3.0-71.0","","1254-3","""dejected""","""kibi.wav""","90","energetic","SRI","different","1","D","dejected","Y","11"
"","3061","same-different-html","75","809296","0.0-3.0-72.0","","1254-3","""worn out""","""boroboro.wav""","191","worn out","RI","same","1","T","worn out","Y","12"
"","3178","same-different-html","76","815479","0.0-3.0-73.0","","1254-3","""dejected""","""gakugaku.wav""","191","dejected","RNRI","same","1","T","dejected","Y","13"
"","3548","same-different-html","77","822032","0.0-3.0-74.0","","1254-3","""messy""","""bakabaka.wav""","90","stupid","RNAdj","different","1","D","messy","Y","14"
"","2964","same-different-html","78","827999","0.0-3.0-75.0","","1254-3","""fast asleep""","""berabera.wav""","90","chatty","RI","different","1","D","fast asleep","Y","15"
"","5262","same-different-html","79","836272","0.0-3.0-76.0","","1254-3","""chatty""","""berabera.wav""","191","chatty","RI","same","1","T","chatty","Y","16"
"","3467","same-different-html","80","842743","0.0-3.0-77.0","","1254-3","""noisy""","""gaya.wav""","90","noisy","SRI","same","0","T","noisy","Y","17"
"","3275","same-different-html","81","849024","0.0-3.0-78.0","","1254-3","""supple""","""shinnarishinnari.wav""","191","supple","RNRI","same","1","T","supple","Y","18"
"","2899","same-different-html","82","854927","0.0-3.0-79.0","","1254-3","""rare""","""mare.wav""","191","rare","NAdj","same","1","T","rare","Y","19"
"","3156","same-different-html","83","861089","0.0-3.0-80.0","","1254-3","""sloppy""","""kokukoku.wav""","90","harsh","RNAdj","different","1","D","sloppy","Y","20"
"","2840","same-different-html","84","866936","0.0-3.0-81.0","","1254-3","""energetic""","""boroboro.wav""","90","worn out","RI","different","1","D","energetic","Y","21"
"","3282","same-different-html","85","873224","0.0-3.0-82.0","","1254-3","""glossy""","""tsuyatsuya.wav""","191","glossy","RI","same","1","T","glossy","Y","22"
"","4674","same-different-html","86","880903","0.0-3.0-83.0","","1254-3","""stupid""","""mucha.wav""","90","rash","NAdj","different","1","D","stupid","Y","23"
"","2916","same-different-html","87","886824","0.0-3.0-84.0","","1254-3","""resolute""","""gaya.wav""","90","noisy","SRI","different","1","D","resolute","Y","24"
"","3362","same-different-html","88","893192","0.0-3.0-85.0","","1254-3","""vulgar""","""zoku.wav""","191","vulgar","NAdj","same","1","T","vulgar","Y","25"
"","2885","same-different-html","89","899080","0.0-3.0-86.0","","1254-3","""rare""","""gochagocha.wav""","90","messy","RI","different","1","D","rare","Y","26"
"","2834","same-different-html","90","904920","0.0-3.0-87.0","","1254-3","""steaming""","""zatsuzatsu.wav""","90","sloppy","RNAdj","different","1","D","steaming","Y","27"
"","3046","same-different-html","91","910969","0.0-3.0-88.0","","1254-3","""vulgar""","""kizakiza.wav""","90","smug","RNAdj","different","1","D","vulgar","Y","28"
"","5132","same-different-html","92","919103","0.0-3.0-89.0","","1254-3","""smooth""","""nopperinopperi.wav""","191","smooth","RNRI","same","1","T","smooth","Y","29"
"","2926","same-different-html","93","925032","0.0-3.0-90.0","","1254-3","""sullen""","""musu.wav""","90","sullen","NRI","same","0","T","sullen","Y","30"
"","3460","same-different-html","94","931496","0.0-3.0-91.0","","1254-3","""resolute""","""bassari.wav""","191","resolute","NRI","same","1","T","resolute","Y","31"
"","2870","same-different-html","95","937369","0.0-3.0-92.0","","1254-3","""sullen""","""gussuri.wav""","90","fast asleep","NRI","different","1","D","sullen","Y","32"
"","3475","same-different-html","96","943847","0.0-3.0-93.0","","1254-3","""smug""","""kerokero.wav""","90","nonchalantly","RNRI","different","1","D","smug","Y","33"
"","2797","same-different-html","97","949647","0.0-3.0-94.0","","1254-3","""chatty""","""mare.wav""","90","rare","NAdj","different","1","D","chatty","Y","34"
"","3908","same-different-html","98","956560","0.0-3.0-95.0","","1254-3","""fragile""","""zoku.wav""","90","vulgar","NAdj","different","1","D","fragile","Y","35"
"","3707","same-different-html","99","963274","0.0-3.0-96.0","","1254-3","""sloppy""","""zatsuzatsu.wav""","191","sloppy","RNAdj","same","1","T","sloppy","Y","36"
"","2876","same-different-html","100","969153","0.0-3.0-97.0","","1254-3","""supple""","""yawa.wav""","90","fragile","NAdj","different","1","D","supple","Y","37"
"","3475","same-different-html","101","975632","0.0-3.0-98.0","","1254-3","""rash""","""mucha.wav""","191","rash","NAdj","same","1","T","rash","Y","38"
"","3010","same-different-html","102","981647","0.0-3.0-99.0","","1254-3","""smooth""","""shinnarishinnari.wav""","90","supple","RNRI","different","1","D","smooth","Y","39"
"","4455","same-different-html","103","989104","0.0-3.0-100.0","","1254-3","""nonchalantly""","""kerokero.wav""","191","nonchalantly","RNRI","same","1","T","nonchalantly","Y","40"
"","3141","same-different-html","104","995249","0.0-3.0-101.0","","1254-3","""smug""","""kizakiza.wav""","90","smug","RNAdj","same","0","T","smug","Y","41"
"","2828","same-different-html","105","1001080","0.0-3.0-102.0","","1254-3","""glossy""","""hoka.wav""","90","steaming","SRI","different","1","D","glossy","Y","42"
"","5578","same-different-html","106","1009662","0.0-3.0-103.0","","1254-3","""stupid""","""bakabaka.wav""","191","stupid","RNAdj","same","1","T","stupid","Y","43"
"","2793","same-different-html","107","1015458","0.0-3.0-104.0","","1254-3","""fragile""","""yawa.wav""","90","fragile","NAdj","same","0","T","fragile","Y","44"
"","3680","same-different-html","108","1022143","0.0-3.0-105.0","","1254-3","""harsh""","""bassari.wav""","191","resolute","NRI","different","0","D","harsh","Y","45"
"","2949","same-different-html","109","1028097","0.0-3.0-106.0","","1254-3","""humid""","""gakugaku.wav""","90","dejected","RNRI","different","1","D","humid","Y","46"
"","2946","same-different-html","110","1034048","0.0-3.0-107.0","","1254-3","""rash""","""gara.wav""","90","to change ocmpletely","NRI","different","1","D","rash","Y","47"
"","2868","same-different-html","111","1039921","0.0-3.0-108.0","","1254-3","""energetic""","""kibi.wav""","191","energetic","SRI","same","1","T","energetic","Y","48"
"[{""page_index"":0,""viewing_time"":36302}]","36302","instructions","112","1077224","0.0-3.0-109.0","","","","","","","","","","","","",""
