"view_history","rt","trial_type","trial_index","time_elapsed","internal_node_id","responses","Id","word","sound","key_press","TrueMeaning","WordType","answer","correct","TrialType","TargetMeaning","LegalTrial","trialNum"
"[{""page_index"":0,""viewing_time"":2169}]","2170","instructions","0","2171","0.0-0.0","","","","","","","","","","","","",""
"[{""page_index"":0,""viewing_time"":1090},{""page_index"":1,""viewing_time"":1349},{""page_index"":2,""viewing_time"":922},{""page_index"":3,""viewing_time"":576},{""page_index"":4,""viewing_time"":4819}]","8756","instructions","1","10928","0.0-1.0","","","","","","","","","","","","",""
"","35937","survey-multi-choice","2","46874","0.0-2.0","{""Q0"":""Yes"",""Q1"":""Yes"",""Q2"":""Yes"",""Q3"":""Yes"",""Q4"":""Yes""}","","","","","","","","","","","",""
"[{""page_index"":0,""viewing_time"":1502},{""page_index"":1,""viewing_time"":2434}]","3937","instructions","3","50813","0.0-3.0-0.0","","","","","","","","","","","","",""
"","4288","same-different-html-trial","4","61112","0.0-3.0-1.0","","0","""sushi""","""prc_sushi.wav""","32","","","","","","","",""
"[{""page_index"":0,""viewing_time"":6723}]","6723","instructions","5","68837","0.0-3.0-2.0","","","","","","","","","","","","",""
"","10974","same-different-html","6","81816","0.0-3.0-3.0","","0","""sushi""","""prc_sushi.wav""","191","","","same","1","","","0",""
"[{""page_index"":0,""viewing_time"":5512}]","5512","instructions","7","88329","0.0-3.0-4.0","","","","","","","","","","","","",""
"","4657","same-different-html","8","94992","0.0-3.0-5.0","","0","""cat""","""prc_sushi.wav""","90","","","different","1","","","0",""
"[{""page_index"":0,""viewing_time"":2575},{""page_index"":1,""viewing_time"":1722}]","4297","instructions","9","100290","0.0-3.0-6.0","","","","","","","","","","","","",""
"","3467","same-different-html-trial","10","109768","0.0-3.0-7.0","","0","""thank you""","""prc_arigato.wav""","32","","","","","","","",""
"[{""page_index"":0,""viewing_time"":2228}]","2228","instructions","11","112997","0.0-3.0-8.0","","","","","","","","","","","","",""
"","2582","same-different-html","12","117583","0.0-3.0-9.0","","0","""thank you""","""prc_arigato.wav""","191","","","same","1","","","0",""
"","3604","same-different-html","13","124192","0.0-3.0-10.0","","0","""cat""","""prc_arigato.wav""","90","","","different","1","","","0",""
"[{""page_index"":0,""viewing_time"":1600},{""page_index"":1,""viewing_time"":3185}]","4786","instructions","14","129979","0.0-3.0-11.0","","","","","","","","","","","","",""
"","8878","same-different-html-trial","15","144863","0.0-3.0-12.0","","5107-10","""wobbly""","""yura.wav""","32","wobbly","SRI","","","","","","1"
"","2728","same-different-html-trial","16","154599","0.0-3.0-13.0","","5107-10","""agitated""","""hiku.wav""","32","agitated","SRI","","","","","","2"
"","10938","same-different-html-trial","17","172544","0.0-3.0-14.0","","5107-10","""fragile""","""yawayawa.wav""","32","fragile","RNAdj","","","","","","3"
"","1642","same-different-html-trial","18","181192","0.0-3.0-15.0","","5107-10","""rare""","""mare.wav""","32","rare","NAdj","","","","","","4"
"","2754","same-different-html-trial","19","190952","0.0-3.0-16.0","","5107-10","""decisive""","""pishapisha.wav""","32","decisive","RNRI","","","","","","5"
"","400","same-different-html-trial","20","198360","0.0-3.0-17.0","","5107-10","""hasty""","""seka.wav""","32","hasty","SRI","","","","","","6"
"","1568","same-different-html-trial","21","206935","0.0-3.0-18.0","","5107-10","""whole""","""gosogoso.wav""","32","whole","RNRI","","","","","","7"
"","1672","same-different-html-trial","22","215615","0.0-3.0-19.0","","5107-10","""rude""","""zukezuke.wav""","32","rude","RI","","","","","","8"
"","607","same-different-html-trial","23","223232","0.0-3.0-20.0","","5107-10","""rash""","""muchamucha.wav""","32","rash","RNAdj","","","","","","9"
"","1632","same-different-html-trial","24","231872","0.0-3.0-21.0","","5107-10","""plump""","""potchari.wav""","32","plump","NRI","","","","","","10"
"","961","same-different-html-trial","25","239840","0.0-3.0-22.0","","5107-10","""disadvantaged""","""furi.wav""","32","disadvantaged","NAdj","","","","","","11"
"","1414","same-different-html-trial","26","248263","0.0-3.0-23.0","","5107-10","""humid""","""mushimushi.wav""","32","humid","RI","","","","","","12"
"","499","same-different-html-trial","27","255769","0.0-3.0-24.0","","5107-10","""crowded""","""bisshiri.wav""","32","crowded","NRI","","","","","","13"
"","70","same-different-html-trial","28","262847","0.0-3.0-25.0","","5107-10","""perfect""","""batchiribatchiri.wav""","32","perfect","RNRI","","","","","","14"
"","650","same-different-html-trial","29","270503","0.0-3.0-26.0","","5107-10","""comfortable""","""raku.wav""","32","comfortable","NAdj","","","","","","15"
"","258","same-different-html-trial","30","277769","0.0-3.0-27.0","","5107-10","""steaming""","""hokahoka.wav""","32","steaming","RI","","","","","","16"
"","575","same-different-html-trial","31","285353","0.0-3.0-28.0","","5107-10","""sturdy""","""gashigashi.wav""","32","sturdy","RNRI","","","","","","17"
"","432","same-different-html-trial","32","292792","0.0-3.0-29.0","","5107-10","""deficient""","""fubifubi.wav""","32","deficient","RNAdj","","","","","","18"
"","1271","same-different-html-trial","33","301068","0.0-3.0-30.0","","5107-10","""whispering""","""hisohiso.wav""","32","whispering","RI","","","","","","19"
"","652","same-different-html-trial","34","308727","0.0-3.0-31.0","","5107-10","""sloppy""","""zatsuzatsu.wav""","32","sloppy","RNAdj","","","","","","20"
"","680","same-different-html-trial","35","316415","0.0-3.0-32.0","","5107-10","""smug""","""kiza.wav""","32","smug","NAdj","","","","","","21"
"","1185","same-different-html-trial","36","324607","0.0-3.0-33.0","","5107-10","""offended""","""kachin.wav""","32","offended","NRI","","","","","","22"
"","892","same-different-html-trial","37","332511","0.0-3.0-34.0","","5107-10","""resolute""","""bassari.wav""","32","resolute","NRI","","","","","","23"
"","1225","same-different-html-trial","38","340743","0.0-3.0-35.0","","5107-10","""happy""","""uki.wav""","32","happy","SRI","","","","","","24"
"","3659","same-different-html-trial","39","351407","0.0-3.0-36.0","","5107-10","""smug""","""kiza.wav""","32","smug","NAdj","","","","","","25"
"","618","same-different-html-trial","40","359031","0.0-3.0-37.0","","5107-10","""humid""","""mushimushi.wav""","32","humid","RI","","","","","","26"
"","592","same-different-html-trial","41","366631","0.0-3.0-38.0","","5107-10","""plump""","""potchari.wav""","32","plump","NRI","","","","","","27"
"","392","same-different-html-trial","42","374031","0.0-3.0-39.0","","5107-10","""wobbly""","""yura.wav""","32","wobbly","SRI","","","","","","28"
"","473","same-different-html-trial","43","381511","0.0-3.0-40.0","","5107-10","""offended""","""kachin.wav""","32","offended","NRI","","","","","","29"
"","353","same-different-html-trial","44","388871","0.0-3.0-41.0","","5107-10","""hasty""","""seka.wav""","32","hasty","SRI","","","","","","30"
"","986","same-different-html-trial","45","396863","0.0-3.0-42.0","","5107-10","""deficient""","""fubifubi.wav""","32","deficient","RNAdj","","","","","","31"
"","975","same-different-html-trial","46","404847","0.0-3.0-43.0","","5107-10","""sturdy""","""gashigashi.wav""","32","sturdy","RNRI","","","","","","32"
"","947","same-different-html-trial","47","412799","0.0-3.0-44.0","","5107-10","""rash""","""muchamucha.wav""","32","rash","RNAdj","","","","","","33"
"","474","same-different-html-trial","48","420279","0.0-3.0-45.0","","5107-10","""happy""","""uki.wav""","32","happy","SRI","","","","","","34"
"","186","same-different-html-trial","49","427471","0.0-3.0-46.0","","5107-10","""perfect""","""batchiribatchiri.wav""","32","perfect","RNRI","","","","","","35"
"","331","same-different-html-trial","50","434807","0.0-3.0-47.0","","5107-10","""agitated""","""hiku.wav""","32","agitated","SRI","","","","","","36"
"","5514","same-different-html-trial","51","447327","0.0-3.0-48.0","","5107-10","""steaming""","""hokahoka.wav""","32","steaming","RI","","","","","","37"
"","1011","same-different-html-trial","52","455343","0.0-3.0-49.0","","5107-10","""whole""","""gosogoso.wav""","32","whole","RNRI","","","","","","38"
"","290","same-different-html-trial","53","462639","0.0-3.0-50.0","","5107-10","""whispering""","""hisohiso.wav""","32","whispering","RI","","","","","","39"
"","391","same-different-html-trial","54","470039","0.0-3.0-51.0","","5107-10","""rude""","""zukezuke.wav""","32","rude","RI","","","","","","40"
"","145","same-different-html-trial","55","477199","0.0-3.0-52.0","","5107-10","""rare""","""mare.wav""","32","rare","NAdj","","","","","","41"
"","4203","same-different-html-trial","56","488423","0.0-3.0-53.0","","5107-10","""disadvantaged""","""furi.wav""","32","disadvantaged","NAdj","","","","","","42"
"","255","same-different-html-trial","57","495687","0.0-3.0-54.0","","5107-10","""resolute""","""bassari.wav""","32","resolute","NRI","","","","","","43"
"","32","same-different-html-trial","58","502727","0.0-3.0-55.0","","5107-10","""decisive""","""pishapisha.wav""","32","decisive","RNRI","","","","","","44"
"","90","same-different-html-trial","59","509823","0.0-3.0-56.0","","5107-10","""sloppy""","""zatsuzatsu.wav""","32","sloppy","RNAdj","","","","","","45"
"","448","same-different-html-trial","60","517280","0.0-3.0-57.0","","5107-10","""fragile""","""yawayawa.wav""","32","fragile","RNAdj","","","","","","46"
"","512","same-different-html-trial","61","524799","0.0-3.0-58.0","","5107-10","""comfortable""","""raku.wav""","32","comfortable","NAdj","","","","","","47"
"","461","same-different-html-trial","62","532271","0.0-3.0-59.0","","5107-10","""crowded""","""bisshiri.wav""","32","crowded","NRI","","","","","","48"
"[{""page_index"":0,""viewing_time"":7002}]","7002","instructions","63","540274","0.0-3.0-60.0","","","","","","","","","","","","",""
"","3646","same-different-html","64","545927","0.0-3.0-61.0","","5107-10","""rare""","""mare.wav""","90","rare","NAdj","same","0","T","rare","Y","1"
"","4171","same-different-html","65","553104","0.0-3.0-62.0","","5107-10","""fragile""","""uki.wav""","90","happy","SRI","different","1","D","fragile","Y","2"
"","3305","same-different-html","66","559415","0.0-3.0-63.0","","5107-10","""comfortable""","""furi.wav""","191","disadvantaged","NAdj","different","0","D","comfortable","Y","3"
"","3067","same-different-html","67","565487","0.0-3.0-64.0","","5107-10","""hasty""","""seka.wav""","90","hasty","SRI","same","0","T","hasty","Y","4"
"","5485","same-different-html","68","573976","0.0-3.0-65.0","","5107-10","""happy""","""potchari.wav""","191","plump","NRI","different","0","D","happy","Y","5"
"","4307","same-different-html","69","581287","0.0-3.0-66.0","","5107-10","""disadvantaged""","""furi.wav""","191","disadvantaged","NAdj","same","1","T","disadvantaged","Y","6"
"","3019","same-different-html","70","587311","0.0-3.0-67.0","","5107-10","""humid""","""hiku.wav""","90","agitated","SRI","different","1","D","humid","Y","7"
"","2876","same-different-html","71","593191","0.0-3.0-68.0","","5107-10","""whispering""","""bassari.wav""","191","resolute","NRI","different","0","D","whispering","Y","8"
"","3093","same-different-html","72","599287","0.0-3.0-69.0","","5107-10","""wobbly""","""yura.wav""","191","wobbly","SRI","same","1","T","wobbly","Y","9"
"","4098","same-different-html","73","606391","0.0-3.0-70.0","","5107-10","""rude""","""mare.wav""","191","rare","NAdj","different","0","D","rude","Y","10"
"","4473","same-different-html","74","613871","0.0-3.0-71.0","","5107-10","""rare""","""batchiribatchiri.wav""","191","perfect","RNRI","different","0","D","rare","Y","11"
"","3076","same-different-html","75","619975","0.0-3.0-72.0","","5107-10","""whispering""","""hisohiso.wav""","191","whispering","RI","same","1","T","whispering","Y","12"
"","3411","same-different-html","76","626391","0.0-3.0-73.0","","5107-10","""perfect""","""raku.wav""","191","comfortable","NAdj","different","0","D","perfect","Y","13"
"","4873","same-different-html","77","634271","0.0-3.0-74.0","","5107-10","""plump""","""potchari.wav""","191","plump","NRI","same","1","T","plump","Y","14"
"","2818","same-different-html","78","640095","0.0-3.0-75.0","","5107-10","""fragile""","""yawayawa.wav""","191","fragile","RNAdj","same","1","T","fragile","Y","15"
"","2955","same-different-html","79","646055","0.0-3.0-76.0","","5107-10","""deficient""","""fubifubi.wav""","90","deficient","RNAdj","same","0","T","deficient","Y","16"
"","2996","same-different-html","80","652055","0.0-3.0-77.0","","5107-10","""offended""","""kiza.wav""","191","smug","NAdj","different","0","D","offended","Y","17"
"","3235","same-different-html","81","658294","0.0-3.0-78.0","","5107-10","""rash""","""hokahoka.wav""","90","steaming","RI","different","1","D","rash","Y","18"
"","2821","same-different-html","82","664119","0.0-3.0-79.0","","5107-10","""sturdy""","""gosogoso.wav""","90","whole","RNRI","different","1","D","sturdy","Y","19"
"","2059","same-different-html","83","669182","0.0-3.0-80.0","","5107-10","""resolute""","""yura.wav""","191","wobbly","SRI","different","0","D","resolute","Y","20"
"","3173","same-different-html","84","675359","0.0-3.0-81.0","","5107-10","""rude""","""zukezuke.wav""","90","rude","RI","same","0","T","rude","Y","21"
"","3345","same-different-html","85","681727","0.0-3.0-82.0","","5107-10","""agitated""","""pishapisha.wav""","191","decisive","RNRI","different","0","D","agitated","Y","22"
"","2856","same-different-html","86","687591","0.0-3.0-83.0","","5107-10","""smug""","""kiza.wav""","191","smug","NAdj","same","1","T","smug","Y","23"
"","4586","same-different-html","87","695183","0.0-3.0-84.0","","5107-10","""sloppy""","""zukezuke.wav""","90","rude","RI","different","1","D","sloppy","Y","24"
"","3076","same-different-html","88","701263","0.0-3.0-85.0","","5107-10","""smug""","""gashigashi.wav""","90","sturdy","RNRI","different","1","D","smug","Y","25"
"","1643","same-different-html","89","705911","0.0-3.0-86.0","","5107-10","""offended""","""kachin.wav""","90","offended","NRI","same","0","T","offended","Y","26"
"","3068","same-different-html","90","711983","0.0-3.0-87.0","","5107-10","""decisive""","""fubifubi.wav""","191","deficient","RNAdj","different","0","D","decisive","Y","27"
"","2708","same-different-html","91","717695","0.0-3.0-88.0","","5107-10","""deficient""","""mushimushi.wav""","191","humid","RI","different","0","D","deficient","Y","28"
"","2795","same-different-html","92","723494","0.0-3.0-89.0","","5107-10","""agitated""","""hiku.wav""","191","agitated","SRI","same","1","T","agitated","Y","29"
"","3404","same-different-html","93","729902","0.0-3.0-90.0","","5107-10","""rash""","""muchamucha.wav""","90","rash","RNAdj","same","0","T","rash","Y","30"
"","2949","same-different-html","94","735855","0.0-3.0-91.0","","5107-10","""whole""","""gosogoso.wav""","191","whole","RNRI","same","1","T","whole","Y","31"
"","2385","same-different-html","95","741247","0.0-3.0-92.0","","5107-10","""happy""","""uki.wav""","191","happy","SRI","same","1","T","happy","Y","32"
"","2499","same-different-html","96","746751","0.0-3.0-93.0","","5107-10","""crowded""","""bisshiri.wav""","191","crowded","NRI","same","1","T","crowded","Y","33"
"","2990","same-different-html","97","752744","0.0-3.0-94.0","","5107-10","""decisive""","""pishapisha.wav""","191","decisive","RNRI","same","1","T","decisive","Y","34"
"","3128","same-different-html","98","758874","0.0-3.0-95.0","","5107-10","""resolute""","""bassari.wav""","191","resolute","NRI","same","1","T","resolute","Y","35"
"","3834","same-different-html","99","765711","0.0-3.0-96.0","","5107-10","""perfect""","""batchiribatchiri.wav""","191","perfect","RNRI","same","1","T","perfect","Y","36"
"","2529","same-different-html","100","771247","0.0-3.0-97.0","","5107-10","""plump""","""bisshiri.wav""","191","crowded","NRI","different","0","D","plump","Y","37"
"","3009","same-different-html","101","777263","0.0-3.0-98.0","","5107-10","""steaming""","""hokahoka.wav""","191","steaming","RI","same","1","T","steaming","Y","38"
"","2952","same-different-html","102","783223","0.0-3.0-99.0","","5107-10","""disadvantaged""","""kachin.wav""","191","offended","NRI","different","0","D","disadvantaged","Y","39"
"","2826","same-different-html","103","789055","0.0-3.0-100.0","","5107-10","""sturdy""","""gashigashi.wav""","191","sturdy","RNRI","same","1","T","sturdy","Y","40"
"","2785","same-different-html","104","794847","0.0-3.0-101.0","","5107-10","""humid""","""mushimushi.wav""","191","humid","RI","same","1","T","humid","Y","41"
"","2795","same-different-html","105","800647","0.0-3.0-102.0","","5107-10","""comfortable""","""raku.wav""","191","comfortable","NAdj","same","1","T","comfortable","Y","42"
"","3028","same-different-html","106","806679","0.0-3.0-103.0","","5107-10","""wobbly""","""hisohiso.wav""","191","whispering","RI","different","0","D","wobbly","Y","43"
"","2796","same-different-html","107","812479","0.0-3.0-104.0","","5107-10","""steaming""","""zatsuzatsu.wav""","191","sloppy","RNAdj","different","0","D","steaming","Y","44"
"","2594","same-different-html","108","818079","0.0-3.0-105.0","","5107-10","""whole""","""seka.wav""","191","hasty","SRI","different","0","D","whole","Y","45"
"","2787","same-different-html","109","823870","0.0-3.0-106.0","","5107-10","""crowded""","""muchamucha.wav""","191","rash","RNAdj","different","0","D","crowded","Y","46"
"","2524","same-different-html","110","829399","0.0-3.0-107.0","","5107-10","""sloppy""","""zatsuzatsu.wav""","191","sloppy","RNAdj","same","1","T","sloppy","Y","47"
"","2874","same-different-html","111","835279","0.0-3.0-108.0","","5107-10","""hasty""","""yawayawa.wav""","191","fragile","RNAdj","different","0","D","hasty","Y","48"
"[{""page_index"":0,""viewing_time"":8063}]","8063","instructions","112","844343","0.0-3.0-109.0","","","","","","","","","","","","",""
