"view_history","rt","trial_type","trial_index","time_elapsed","internal_node_id","responses","Id","word","sound","key_press","TrueMeaning","WordType","answer","correct","TrialType","TargetMeaning","LegalTrial","trialNum"
"[{""page_index"":0,""viewing_time"":14520}]","14521","instructions","0","14522","0.0-0.0","","","","","","","","","","","","",""
"[{""page_index"":0,""viewing_time"":5802},{""page_index"":1,""viewing_time"":1204},{""page_index"":2,""viewing_time"":4609},{""page_index"":3,""viewing_time"":7879},{""page_index"":4,""viewing_time"":1661}]","21155","instructions","1","35677","0.0-1.0","","","","","","","","","","","","",""
"","10791","survey-multi-choice","2","46476","0.0-2.0","{""Q0"":""Yes"",""Q1"":""Yes"",""Q2"":""Yes"",""Q3"":""Yes"",""Q4"":""Yes""}","","","","","","","","","","","",""
"[{""page_index"":0,""viewing_time"":1085},{""page_index"":1,""viewing_time"":2266}]","3351","instructions","3","49827","0.0-3.0-0.0","","","","","","","","","","","","",""
"","4521","same-different-html-trial","4","60374","0.0-3.0-1.0","","0","""sushi""","""prc_sushi.wav""","32","","","","","","","",""
"[{""page_index"":0,""viewing_time"":2355}]","2355","instructions","5","63730","0.0-3.0-2.0","","","","","","","","","","","","",""
"","9016","same-different-html","6","74755","0.0-3.0-3.0","","0","""sushi""","""prc_sushi.wav""","191","","","same","1","","","0",""
"[{""page_index"":0,""viewing_time"":12494}]","12495","instructions","7","88252","0.0-3.0-4.0","","","","","","","","","","","","",""
"","4855","same-different-html","8","95113","0.0-3.0-5.0","","0","""cat""","""prc_sushi.wav""","90","","","different","1","","","0",""
"[{""page_index"":0,""viewing_time"":3117},{""page_index"":1,""viewing_time"":1790}]","4908","instructions","9","101025","0.0-3.0-6.0","","","","","","","","","","","","",""
"","1761","same-different-html-trial","10","108802","0.0-3.0-7.0","","0","""thank you""","""prc_arigato.wav""","32","","","","","","","",""
"[{""page_index"":0,""viewing_time"":3517}]","3518","instructions","11","113325","0.0-3.0-8.0","","","","","","","","","","","","",""
"","2944","same-different-html","12","118275","0.0-3.0-9.0","","0","""thank you""","""prc_arigato.wav""","191","","","same","1","","","0",""
"","2910","same-different-html","13","124197","0.0-3.0-10.0","","0","""cat""","""prc_arigato.wav""","90","","","different","1","","","0",""
"[{""page_index"":0,""viewing_time"":2379},{""page_index"":1,""viewing_time"":1409}]","3788","instructions","14","128985","0.0-3.0-11.0","","","","","","","","","","","","",""
"","2756","same-different-html-trial","15","137764","0.0-3.0-12.0","","3815-3","""decisive""","""pisha.wav""","32","decisive","NRI","","","","","","1"
"","2532","same-different-html-trial","16","147315","0.0-3.0-13.0","","3815-3","""energetic""","""kibi.wav""","32","energetic","SRI","","","","","","2"
"","2682","same-different-html-trial","17","157013","0.0-3.0-14.0","","3815-3","""supple""","""shinnarishinnari.wav""","32","supple","RNRI","","","","","","3"
"","1960","same-different-html-trial","18","165996","0.0-3.0-15.0","","3815-3","""gaping""","""poka.wav""","32","gaping","NRI","","","","","","4"
"","2784","same-different-html-trial","19","175805","0.0-3.0-16.0","","3815-3","""whispering""","""hisohiso.wav""","32","whispering","RI","","","","","","5"
"","6216","same-different-html-trial","20","189037","0.0-3.0-17.0","","3815-3","""crowded""","""bisshiribisshiri.wav""","32","crowded","RNRI","","","","","","6"
"","4827","same-different-html-trial","21","200881","0.0-3.0-18.0","","3815-3","""glossy""","""tsuyatsuya.wav""","32","glossy","RI","","","","","","7"
"","2203","same-different-html-trial","22","210097","0.0-3.0-19.0","","3815-3","""disadvantaged""","""furifuri.wav""","32","disadvantaged","RNAdj","","","","","","8"
"","2020","same-different-html-trial","23","219134","0.0-3.0-20.0","","3815-3","""pure""","""mukumuku.wav""","32","pure","RNAdj","","","","","","9"
"","22447","same-different-html-trial","24","248598","0.0-3.0-21.0","","3815-3","""dejected""","""gakugaku.wav""","32","dejected","RNRI","","","","","","10"
"","4457","same-different-html-trial","25","260070","0.0-3.0-22.0","","3815-3","""comfortable""","""raku.wav""","32","comfortable","NAdj","","","","","","11"
"","2798","same-different-html-trial","26","269893","0.0-3.0-23.0","","3815-3","""careful""","""jikkuri.wav""","32","careful","NRI","","","","","","12"
"","10468","same-different-html-trial","27","287377","0.0-3.0-24.0","","3815-3","""free""","""hima.wav""","32","free","NAdj","","","","","","13"
"","25921","same-different-html-trial","28","320318","0.0-3.0-25.0","","3815-3","""gaudy""","""kabikabi.wav""","32","gaudy","RNAdj","","","","","","14"
"","11093","same-different-html-trial","29","338431","0.0-3.0-26.0","","3815-3","""smooth""","""nopperi.wav""","32","smooth","NRI","","","","","","15"
"","1301","same-different-html-trial","30","346752","0.0-3.0-27.0","","3815-3","""stupid""","""baka.wav""","32","stupid","NAdj","","","","","","16"
"","7584","same-different-html-trial","31","361352","0.0-3.0-28.0","","3815-3","""happy""","""uki.wav""","32","happy","SRI","","","","","","17"
"","2059","same-different-html-trial","32","370423","0.0-3.0-29.0","","3815-3","""chubby""","""buku.wav""","32","chubby","SRI","","","","","","18"
"","6077","same-different-html-trial","33","383513","0.0-3.0-30.0","","3815-3","""rash""","""muchamucha.wav""","32","rash","RNAdj","","","","","","19"
"","636","same-different-html-trial","34","391168","0.0-3.0-31.0","","3815-3","""suspenseful""","""hara.wav""","32","suspenseful","SRI","","","","","","20"
"","1850","same-different-html-trial","35","400032","0.0-3.0-32.0","","3815-3","""rare""","""mare.wav""","32","rare","NAdj","","","","","","21"
"","6176","same-different-html-trial","36","413226","0.0-3.0-33.0","","3815-3","""plump""","""potcharipotchari.wav""","32","plump","RNRI","","","","","","22"
"","12061","same-different-html-trial","37","432305","0.0-3.0-34.0","","3815-3","""fat""","""debudebu.wav""","32","fat","RI","","","","","","23"
"","7216","same-different-html-trial","38","446544","0.0-3.0-35.0","","3815-3","""stiff""","""gowagowa.wav""","32","stiff","RI","","","","","","24"
"","5091","same-different-html-trial","39","458643","0.0-3.0-36.0","","3815-3","""glossy""","""tsuyatsuya.wav""","32","glossy","RI","","","","","","25"
"","12009","same-different-html-trial","40","477668","0.0-3.0-37.0","","3815-3","""chubby""","""buku.wav""","32","chubby","SRI","","","","","","26"
"","9637","same-different-html-trial","41","494323","0.0-3.0-38.0","","3815-3","""gaping""","""poka.wav""","32","gaping","NRI","","","","","","27"
"","3819","same-different-html-trial","42","505156","0.0-3.0-39.0","","3815-3","""gaudy""","""kabikabi.wav""","32","gaudy","RNAdj","","","","","","28"
"","5511","same-different-html-trial","43","517684","0.0-3.0-40.0","","3815-3","""suspenseful""","""hara.wav""","32","suspenseful","SRI","","","","","","29"
"","10506","same-different-html-trial","44","535213","0.0-3.0-41.0","","3815-3","""stiff""","""gowagowa.wav""","32","stiff","RI","","","","","","30"
"","2618","same-different-html-trial","45","544853","0.0-3.0-42.0","","3815-3","""rare""","""mare.wav""","32","rare","NAdj","","","","","","31"
"","7213","same-different-html-trial","46","559078","0.0-3.0-43.0","","3815-3","""careful""","""jikkuri.wav""","32","careful","NRI","","","","","","32"
"","971","same-different-html-trial","47","567072","0.0-3.0-44.0","","3815-3","""decisive""","""pisha.wav""","32","decisive","NRI","","","","","","33"
"","1631","same-different-html-trial","48","575717","0.0-3.0-45.0","","3815-3","""disadvantaged""","""furifuri.wav""","32","disadvantaged","RNAdj","","","","","","34"
"","14292","same-different-html-trial","49","597022","0.0-3.0-46.0","","3815-3","""happy""","""uki.wav""","32","happy","SRI","","","","","","35"
"","7261","same-different-html-trial","50","611303","0.0-3.0-47.0","","3815-3","""smooth""","""nopperi.wav""","32","smooth","NRI","","","","","","36"
"","3814","same-different-html-trial","51","622130","0.0-3.0-48.0","","3815-3","""dejected""","""gakugaku.wav""","32","dejected","RNRI","","","","","","37"
"","9132","same-different-html-trial","52","638280","0.0-3.0-49.0","","3815-3","""comfortable""","""raku.wav""","32","comfortable","NAdj","","","","","","38"
"","29590","same-different-html-trial","53","674890","0.0-3.0-50.0","","3815-3","""pure""","""mukumuku.wav""","32","pure","RNAdj","","","","","","39"
"","10910","same-different-html-trial","54","692817","0.0-3.0-51.0","","3815-3","""energetic""","""kibi.wav""","32","energetic","SRI","","","","","","40"
"","13568","same-different-html-trial","55","713398","0.0-3.0-52.0","","3815-3","""whispering""","""hisohiso.wav""","32","whispering","RI","","","","","","41"
"","36916","same-different-html-trial","56","757333","0.0-3.0-53.0","","3815-3","""stupid""","""baka.wav""","32","stupid","NAdj","","","","","","42"
"","19895","same-different-html-trial","57","784245","0.0-3.0-54.0","","3815-3","""supple""","""shinnarishinnari.wav""","32","supple","RNRI","","","","","","43"
"","2785","same-different-html-trial","58","794054","0.0-3.0-55.0","","3815-3","""rash""","""muchamucha.wav""","32","rash","RNAdj","","","","","","44"
"","5895","same-different-html-trial","59","806966","0.0-3.0-56.0","","3815-3","""plump""","""potcharipotchari.wav""","32","plump","RNRI","","","","","","45"
"","11201","same-different-html-trial","60","825178","0.0-3.0-57.0","","3815-3","""crowded""","""bisshiribisshiri.wav""","32","crowded","RNRI","","","","","","46"
"","4448","same-different-html-trial","61","836642","0.0-3.0-58.0","","3815-3","""free""","""hima.wav""","32","free","NAdj","","","","","","47"
"","227","same-different-html-trial","62","843887","0.0-3.0-59.0","","3815-3","""fat""","""debudebu.wav""","32","fat","RI","","","","","","48"
"[{""page_index"":0,""viewing_time"":67134}]","67134","instructions","63","912024","0.0-3.0-60.0","","","","","","","","","","","","",""
"","31665","same-different-html","64","945698","0.0-3.0-61.0","","3815-3","""happy""","""muchamucha.wav""","191","rash","RNAdj","different","0","D","happy","Y","1"
"","3094","same-different-html","65","951801","0.0-3.0-62.0","","3815-3","""plump""","""potcharipotchari.wav""","191","plump","RNRI","same","1","T","plump","Y","2"
"","17582","same-different-html","66","972394","0.0-3.0-63.0","","3815-3","""fat""","""shinnarishinnari.wav""","90","supple","RNRI","different","1","D","fat","Y","3"
"","19797","same-different-html","67","995203","0.0-3.0-64.0","","3815-3","""suspenseful""","""mukumuku.wav""","90","pure","RNAdj","different","1","D","suspenseful","Y","4"
"","2950","same-different-html","68","1001163","0.0-3.0-65.0","","3815-3","""gaping""","""nopperi.wav""","90","smooth","NRI","different","1","D","gaping","Y","5"
"","8723","same-different-html","69","1012899","0.0-3.0-66.0","","3815-3","""smooth""","""buku.wav""","191","chubby","SRI","different","0","D","smooth","Y","6"
"","4184","same-different-html","70","1020093","0.0-3.0-67.0","","3815-3","""smooth""","""nopperi.wav""","90","smooth","NRI","same","0","T","smooth","Y","7"
"","3361","same-different-html","71","1026469","0.0-3.0-68.0","","3815-3","""pure""","""mukumuku.wav""","191","pure","RNAdj","same","1","T","pure","Y","8"
"","3280","same-different-html","72","1032763","0.0-3.0-69.0","","3815-3","""disadvantaged""","""jikkuri.wav""","90","careful","NRI","different","1","D","disadvantaged","Y","9"
"","2332","same-different-html","73","1038103","0.0-3.0-70.0","","3815-3","""decisive""","""hara.wav""","90","suspenseful","SRI","different","1","D","decisive","Y","10"
"","18146","same-different-html","74","1059262","0.0-3.0-71.0","","3815-3","""whispering""","""hisohiso.wav""","191","whispering","RI","same","1","T","whispering","Y","11"
"","5434","same-different-html","75","1067708","0.0-3.0-72.0","","3815-3","""happy""","""uki.wav""","90","happy","SRI","same","0","T","happy","Y","12"
"","3601","same-different-html","76","1074317","0.0-3.0-73.0","","3815-3","""energetic""","""kibi.wav""","90","energetic","SRI","same","0","T","energetic","Y","13"
"","2875","same-different-html","77","1080197","0.0-3.0-74.0","","3815-3","""whispering""","""bisshiribisshiri.wav""","191","crowded","RNRI","different","0","D","whispering","Y","14"
"","20534","same-different-html","78","1103749","0.0-3.0-75.0","","3815-3","""rare""","""mare.wav""","191","rare","NAdj","same","1","T","rare","Y","15"
"","6103","same-different-html","79","1112863","0.0-3.0-76.0","","3815-3","""comfortable""","""raku.wav""","90","comfortable","NAdj","same","0","T","comfortable","Y","16"
"","5158","same-different-html","80","1121030","0.0-3.0-77.0","","3815-3","""energetic""","""debudebu.wav""","90","fat","RI","different","1","D","energetic","Y","17"
"","2763","same-different-html","81","1126807","0.0-3.0-78.0","","3815-3","""chubby""","""baka.wav""","90","stupid","NAdj","different","1","D","chubby","Y","18"
"","4381","same-different-html","82","1134198","0.0-3.0-79.0","","3815-3","""glossy""","""tsuyatsuya.wav""","90","glossy","RI","same","0","T","glossy","Y","19"
"","4607","same-different-html","83","1141817","0.0-3.0-80.0","","3815-3","""dejected""","""mare.wav""","90","rare","NAdj","different","1","D","dejected","Y","20"
"","3771","same-different-html","84","1148591","0.0-3.0-81.0","","3815-3","""plump""","""furifuri.wav""","191","disadvantaged","RNAdj","different","0","D","plump","Y","21"
"","3596","same-different-html","85","1155200","0.0-3.0-82.0","","3815-3","""pure""","""tsuyatsuya.wav""","90","glossy","RI","different","1","D","pure","Y","22"
"","8386","same-different-html","86","1166600","0.0-3.0-83.0","","3815-3","""careful""","""jikkuri.wav""","90","careful","NRI","same","0","T","careful","Y","23"
"","3527","same-different-html","87","1173138","0.0-3.0-84.0","","3815-3","""gaudy""","""raku.wav""","191","comfortable","NAdj","different","0","D","gaudy","Y","24"
"","3004","same-different-html","88","1179153","0.0-3.0-85.0","","3815-3","""careful""","""kabikabi.wav""","191","gaudy","RNAdj","different","0","D","careful","Y","25"
"","1846","same-different-html","89","1184009","0.0-3.0-86.0","","3815-3","""suspenseful""","""hara.wav""","90","suspenseful","SRI","same","0","T","suspenseful","Y","26"
"","6714","same-different-html","90","1193736","0.0-3.0-87.0","","3815-3","""rash""","""gowagowa.wav""","90","stiff","RI","different","1","D","rash","Y","27"
"","7696","same-different-html","91","1204442","0.0-3.0-88.0","","3815-3","""free""","""hima.wav""","90","free","NAdj","same","0","T","free","Y","28"
"","2600","same-different-html","92","1210056","0.0-3.0-89.0","","3815-3","""gaping""","""poka.wav""","90","gaping","NRI","same","0","T","gaping","Y","29"
"","5516","same-different-html","93","1218587","0.0-3.0-90.0","","3815-3","""stiff""","""gowagowa.wav""","90","stiff","RI","same","0","T","stiff","Y","30"
"","1117","same-different-html","94","1222713","0.0-3.0-91.0","","3815-3","""stupid""","""uki.wav""","90","happy","SRI","different","1","D","stupid","Y","31"
"","1257","same-different-html","95","1226981","0.0-3.0-92.0","","3815-3","""glossy""","""poka.wav""","90","gaping","NRI","different","1","D","glossy","Y","32"
"","1839","same-different-html","96","1231834","0.0-3.0-93.0","","3815-3","""comfortable""","""gakugaku.wav""","191","dejected","RNRI","different","0","D","comfortable","Y","33"
"","7132","same-different-html","97","1241979","0.0-3.0-94.0","","3815-3","""disadvantaged""","""furifuri.wav""","90","disadvantaged","RNAdj","same","0","T","disadvantaged","Y","34"
"","5586","same-different-html","98","1250578","0.0-3.0-95.0","","3815-3","""supple""","""hisohiso.wav""","191","whispering","RI","different","0","D","supple","Y","35"
"","6700","same-different-html","99","1260283","0.0-3.0-96.0","","3815-3","""free""","""pisha.wav""","90","decisive","NRI","different","1","D","free","Y","36"
"","1575","same-different-html","100","1264867","0.0-3.0-97.0","","3815-3","""chubby""","""buku.wav""","90","chubby","SRI","same","0","T","chubby","Y","37"
"","1253","same-different-html","101","1269131","0.0-3.0-98.0","","3815-3","""fat""","""debudebu.wav""","191","fat","RI","same","1","T","fat","Y","38"
"","2172","same-different-html","102","1274317","0.0-3.0-99.0","","3815-3","""gaudy""","""kabikabi.wav""","191","gaudy","RNAdj","same","1","T","gaudy","Y","39"
"","4797","same-different-html","103","1282118","0.0-3.0-100.0","","3815-3","""stiff""","""potcharipotchari.wav""","191","plump","RNRI","different","0","D","stiff","Y","40"
"","2318","same-different-html","104","1287452","0.0-3.0-101.0","","3815-3","""stupid""","""baka.wav""","191","stupid","NAdj","same","1","T","stupid","Y","41"
"","1598","same-different-html","105","1292060","0.0-3.0-102.0","","3815-3","""rare""","""hima.wav""","191","free","NAdj","different","0","D","rare","Y","42"
"","2303","same-different-html","106","1297374","0.0-3.0-103.0","","3815-3","""supple""","""shinnarishinnari.wav""","191","supple","RNRI","same","1","T","supple","Y","43"
"","1821","same-different-html","107","1302203","0.0-3.0-104.0","","3815-3","""crowded""","""kibi.wav""","191","energetic","SRI","different","0","D","crowded","Y","44"
"","3037","same-different-html","108","1308253","0.0-3.0-105.0","","3815-3","""crowded""","""bisshiribisshiri.wav""","90","crowded","RNRI","same","0","T","crowded","Y","45"
"","2006","same-different-html","109","1313269","0.0-3.0-106.0","","3815-3","""dejected""","""gakugaku.wav""","191","dejected","RNRI","same","1","T","dejected","Y","46"
"","4243","same-different-html","110","1320516","0.0-3.0-107.0","","3815-3","""rash""","""muchamucha.wav""","90","rash","RNAdj","same","0","T","rash","Y","47"
"","2977","same-different-html","111","1326501","0.0-3.0-108.0","","3815-3","""decisive""","""pisha.wav""","90","decisive","NRI","same","0","T","decisive","Y","48"
"[{""page_index"":0,""viewing_time"":2229}]","2229","instructions","112","1329733","0.0-3.0-109.0","","","","","","","","","","","","",""
