"view_history","rt","trial_type","trial_index","time_elapsed","internal_node_id","responses","Id","word","sound","key_press","TrueMeaning","WordType","answer","correct","TrialType","TargetMeaning","LegalTrial","trialNum"
"[{""page_index"":0,""viewing_time"":48468}]","48468","instructions","0","48468","0.0-0.0","","","","","","","","","","","","",""
"[{""page_index"":0,""viewing_time"":1772},{""page_index"":1,""viewing_time"":2067},{""page_index"":2,""viewing_time"":2139},{""page_index"":3,""viewing_time"":7206},{""page_index"":4,""viewing_time"":22891}]","36076","instructions","1","84545","0.0-1.0","","","","","","","","","","","","",""
"","10784","survey-multi-choice","2","95332","0.0-2.0","{""Q0"":""Yes"",""Q1"":""Yes"",""Q2"":""Yes"",""Q3"":""Yes"",""Q4"":""Yes""}","","","","","","","","","","","",""
"[{""page_index"":0,""viewing_time"":1515},{""page_index"":1,""viewing_time"":3344}]","4860","instructions","3","100192","0.0-3.0-0.0","","","","","","","","","","","","",""
"","3146","same-different-html-trial","4","109348","0.0-3.0-1.0","","0","""sushi""","""prc_sushi.wav""","32","","","","","","","",""
"[{""page_index"":0,""viewing_time"":4967}]","4968","instructions","5","115318","0.0-3.0-2.0","","","","","","","","","","","","",""
"","11004","same-different-html","6","128326","0.0-3.0-3.0","","0","""sushi""","""prc_sushi.wav""","191","","","same","1","","","0",""
"[{""page_index"":0,""viewing_time"":3393}]","3394","instructions","7","132721","0.0-3.0-4.0","","","","","","","","","","","","",""
"","1768","same-different-html","8","136492","0.0-3.0-5.0","","0","""cat""","""prc_sushi.wav""","90","","","different","1","","","0",""
"[{""page_index"":0,""viewing_time"":2449},{""page_index"":1,""viewing_time"":1916}]","4365","instructions","9","141859","0.0-3.0-6.0","","","","","","","","","","","","",""
"","2156","same-different-html-trial","10","150021","0.0-3.0-7.0","","0","""thank you""","""prc_arigato.wav""","32","","","","","","","",""
"[{""page_index"":0,""viewing_time"":3156}]","3157","instructions","11","154180","0.0-3.0-8.0","","","","","","","","","","","","",""
"","2464","same-different-html","12","158648","0.0-3.0-9.0","","0","""thank you""","""prc_arigato.wav""","191","","","same","1","","","0",""
"","1424","same-different-html","13","163076","0.0-3.0-10.0","","0","""cat""","""prc_arigato.wav""","90","","","different","1","","","0",""
"[{""page_index"":0,""viewing_time"":1265},{""page_index"":1,""viewing_time"":15902}]","17167","instructions","14","181245","0.0-3.0-11.0","","","","","","","","","","","","",""
"","2205","same-different-html-trial","15","189456","0.0-3.0-12.0","","6651-7","""tasteless""","""yaboyabo.wav""","32","tasteless","RNAdj","","","","","","1"
"","1620","same-different-html-trial","16","198082","0.0-3.0-13.0","","6651-7","""sudden""","""patapata.wav""","32","sudden","RNRI","","","","","","2"
"","1556","same-different-html-trial","17","206645","0.0-3.0-14.0","","6651-7","""useless""","""damedame.wav""","32","useless","RNAdj","","","","","","3"
"","1950","same-different-html-trial","18","215601","0.0-3.0-15.0","","6651-7","""whispering""","""hisohiso.wav""","32","whispering","RI","","","","","","4"
"","1512","same-different-html-trial","19","224122","0.0-3.0-16.0","","6651-7","""rash""","""mucha.wav""","32","rash","NAdj","","","","","","5"
"","1793","same-different-html-trial","20","232930","0.0-3.0-17.0","","6651-7","""smooth""","""nopperinopperi.wav""","32","smooth","RNRI","","","","","","6"
"","1344","same-different-html-trial","21","241283","0.0-3.0-18.0","","6651-7","""free""","""hima.wav""","32","free","NAdj","","","","","","7"
"","1260","same-different-html-trial","22","249551","0.0-3.0-19.0","","6651-7","""chatty""","""bera.wav""","32","chatty","SRI","","","","","","8"
"","1382","same-different-html-trial","23","257939","0.0-3.0-20.0","","6651-7","""worn out""","""boroboro.wav""","32","worn out","RI","","","","","","9"
"","1089","same-different-html-trial","24","266037","0.0-3.0-21.0","","6651-7","""shivering""","""buru.wav""","32","shivering","SRI","","","","","","10"
"","486","same-different-html-trial","25","273529","0.0-3.0-22.0","","6651-7","""decisive""","""pisha.wav""","32","decisive","NRI","","","","","","11"
"","1182","same-different-html-trial","26","281722","0.0-3.0-23.0","","6651-7","""hesitant""","""mojimoji.wav""","32","hesitant","RI","","","","","","12"
"","1362","same-different-html-trial","27","290091","0.0-3.0-24.0","","6651-7","""careful""","""jikkuri.wav""","32","careful","NRI","","","","","","13"
"","986","same-different-html-trial","28","298083","0.0-3.0-25.0","","6651-7","""pure""","""mukumuku.wav""","32","pure","RNAdj","","","","","","14"
"","1095","same-different-html-trial","29","306190","0.0-3.0-26.0","","6651-7","""supple""","""shinnarishinnari.wav""","32","supple","RNRI","","","","","","15"
"","855","same-different-html-trial","30","314052","0.0-3.0-27.0","","6651-7","""sloppy""","""zatsu.wav""","32","sloppy","NAdj","","","","","","16"
"","1592","same-different-html-trial","31","322654","0.0-3.0-28.0","","6651-7","""fragile""","""yawayawa.wav""","32","fragile","RNAdj","","","","","","17"
"","1475","same-different-html-trial","32","331136","0.0-3.0-29.0","","6651-7","""messy""","""gochagocha.wav""","32","messy","RI","","","","","","18"
"","1103","same-different-html-trial","33","339248","0.0-3.0-30.0","","6651-7","""chubby""","""buku.wav""","32","chubby","SRI","","","","","","19"
"","1845","same-different-html-trial","34","348101","0.0-3.0-31.0","","6651-7","""offended""","""kachinkachin.wav""","32","offended","RNRI","","","","","","20"
"","1176","same-different-html-trial","35","356288","0.0-3.0-32.0","","6651-7","""harsh""","""koku.wav""","32","harsh","NAdj","","","","","","21"
"","1440","same-different-html-trial","36","364736","0.0-3.0-33.0","","6651-7","""sullen""","""musu.wav""","32","sullen","NRI","","","","","","22"
"","1305","same-different-html-trial","37","373050","0.0-3.0-34.0","","6651-7","""crowded""","""bisshiri.wav""","32","crowded","NRI","","","","","","23"
"","963","same-different-html-trial","38","381021","0.0-3.0-35.0","","6651-7","""hasty""","""seka.wav""","32","hasty","SRI","","","","","","24"
"","1198","same-different-html-trial","39","389227","0.0-3.0-36.0","","6651-7","""pure""","""mukumuku.wav""","32","pure","RNAdj","","","","","","25"
"","1579","same-different-html-trial","40","397813","0.0-3.0-37.0","","6651-7","""whispering""","""hisohiso.wav""","32","whispering","RI","","","","","","26"
"","1122","same-different-html-trial","41","405943","0.0-3.0-38.0","","6651-7","""rash""","""mucha.wav""","32","rash","NAdj","","","","","","27"
"","1030","same-different-html-trial","42","413980","0.0-3.0-39.0","","6651-7","""hasty""","""seka.wav""","32","hasty","SRI","","","","","","28"
"","944","same-different-html-trial","43","421931","0.0-3.0-40.0","","6651-7","""sullen""","""musu.wav""","32","sullen","NRI","","","","","","29"
"","848","same-different-html-trial","44","429785","0.0-3.0-41.0","","6651-7","""shivering""","""buru.wav""","32","shivering","SRI","","","","","","30"
"","851","same-different-html-trial","45","437647","0.0-3.0-42.0","","6651-7","""free""","""hima.wav""","32","free","NAdj","","","","","","31"
"","2074","same-different-html-trial","46","446729","0.0-3.0-43.0","","6651-7","""smooth""","""nopperinopperi.wav""","32","smooth","RNRI","","","","","","32"
"","1206","same-different-html-trial","47","454941","0.0-3.0-44.0","","6651-7","""decisive""","""pisha.wav""","32","decisive","NRI","","","","","","33"
"","872","same-different-html-trial","48","462823","0.0-3.0-45.0","","6651-7","""harsh""","""koku.wav""","32","harsh","NAdj","","","","","","34"
"","1102","same-different-html-trial","49","470934","0.0-3.0-46.0","","6651-7","""fragile""","""yawayawa.wav""","32","fragile","RNAdj","","","","","","35"
"","422","same-different-html-trial","50","479032","0.0-3.0-47.0","","6651-7","""offended""","""kachinkachin.wav""","32","offended","RNRI","","","","","","36"
"","3332","same-different-html-trial","51","489372","0.0-3.0-48.0","","6651-7","""chatty""","""bera.wav""","32","chatty","SRI","","","","","","37"
"","1934","same-different-html-trial","52","498318","0.0-3.0-49.0","","6651-7","""supple""","""shinnarishinnari.wav""","32","supple","RNRI","","","","","","38"
"","848","same-different-html-trial","53","506175","0.0-3.0-50.0","","6651-7","""hesitant""","""mojimoji.wav""","32","hesitant","RI","","","","","","39"
"","841","same-different-html-trial","54","514022","0.0-3.0-51.0","","6651-7","""worn out""","""boroboro.wav""","32","worn out","RI","","","","","","40"
"","1103","same-different-html-trial","55","522132","0.0-3.0-52.0","","6651-7","""sloppy""","""zatsu.wav""","32","sloppy","NAdj","","","","","","41"
"","956","same-different-html-trial","56","530095","0.0-3.0-53.0","","6651-7","""chubby""","""buku.wav""","32","chubby","SRI","","","","","","42"
"","896","same-different-html-trial","57","538508","0.0-3.0-54.0","","6651-7","""crowded""","""bisshiri.wav""","32","crowded","NRI","","","","","","43"
"","965","same-different-html-trial","58","546482","0.0-3.0-55.0","","6651-7","""useless""","""damedame.wav""","32","useless","RNAdj","","","","","","44"
"","201","same-different-html-trial","59","553691","0.0-3.0-56.0","","6651-7","""sudden""","""patapata.wav""","32","sudden","RNRI","","","","","","45"
"","1214","same-different-html-trial","60","561914","0.0-3.0-57.0","","6651-7","""careful""","""jikkuri.wav""","32","careful","NRI","","","","","","46"
"","1360","same-different-html-trial","61","570283","0.0-3.0-58.0","","6651-7","""messy""","""gochagocha.wav""","32","messy","RI","","","","","","47"
"","746","same-different-html-trial","62","578035","0.0-3.0-59.0","","6651-7","""tasteless""","""yaboyabo.wav""","32","tasteless","RNAdj","","","","","","48"
"[{""page_index"":0,""viewing_time"":16877}]","16877","instructions","63","595913","0.0-3.0-60.0","","","","","","","","","","","","",""
"","3375","same-different-html","64","601293","0.0-3.0-61.0","","6651-7","""supple""","""shinnarishinnari.wav""","191","supple","RNRI","same","1","T","supple","Y","1"
"","3082","same-different-html","65","607379","0.0-3.0-62.0","","6651-7","""harsh""","""koku.wav""","191","harsh","NAdj","same","1","T","harsh","Y","2"
"","2275","same-different-html","66","612659","0.0-3.0-63.0","","6651-7","""careful""","""zatsu.wav""","191","sloppy","NAdj","different","0","D","careful","Y","3"
"","2370","same-different-html","67","618034","0.0-3.0-64.0","","6651-7","""offended""","""patapata.wav""","191","sudden","RNRI","different","0","D","offended","Y","4"
"","2073","same-different-html","68","623112","0.0-3.0-65.0","","6651-7","""hesitant""","""mojimoji.wav""","90","hesitant","RI","same","0","T","hesitant","Y","5"
"","2521","same-different-html","69","628639","0.0-3.0-66.0","","6651-7","""worn out""","""musu.wav""","191","sullen","NRI","different","0","D","worn out","Y","6"
"","2923","same-different-html","70","634568","0.0-3.0-67.0","","6651-7","""pure""","""yaboyabo.wav""","191","tasteless","RNAdj","different","0","D","pure","Y","7"
"","2854","same-different-html","71","640427","0.0-3.0-68.0","","6651-7","""messy""","""koku.wav""","191","harsh","NAdj","different","0","D","messy","Y","8"
"","2862","same-different-html","72","646292","0.0-3.0-69.0","","6651-7","""tasteless""","""seka.wav""","90","hasty","SRI","different","1","D","tasteless","Y","9"
"","1688","same-different-html","73","650984","0.0-3.0-70.0","","6651-7","""supple""","""damedame.wav""","191","useless","RNAdj","different","0","D","supple","Y","10"
"","2879","same-different-html","74","656868","0.0-3.0-71.0","","6651-7","""free""","""kachinkachin.wav""","191","offended","RNRI","different","0","D","free","Y","11"
"","3260","same-different-html","75","663133","0.0-3.0-72.0","","6651-7","""tasteless""","""yaboyabo.wav""","191","tasteless","RNAdj","same","1","T","tasteless","Y","12"
"","987","same-different-html","76","667125","0.0-3.0-73.0","","6651-7","""sloppy""","""zatsu.wav""","90","sloppy","NAdj","same","0","T","sloppy","Y","13"
"","1817","same-different-html","77","671946","0.0-3.0-74.0","","6651-7","""rash""","""mukumuku.wav""","90","pure","RNAdj","different","1","D","rash","Y","14"
"","2101","same-different-html","78","677052","0.0-3.0-75.0","","6651-7","""fragile""","""gochagocha.wav""","191","messy","RI","different","0","D","fragile","Y","15"
"","2241","same-different-html","79","682299","0.0-3.0-76.0","","6651-7","""chatty""","""bera.wav""","90","chatty","SRI","same","0","T","chatty","Y","16"
"","1700","same-different-html","80","687003","0.0-3.0-77.0","","6651-7","""hasty""","""seka.wav""","90","hasty","SRI","same","0","T","hasty","Y","17"
"","2483","same-different-html","81","692491","0.0-3.0-78.0","","6651-7","""smooth""","""nopperinopperi.wav""","90","smooth","RNRI","same","0","T","smooth","Y","18"
"","2737","same-different-html","82","698232","0.0-3.0-79.0","","6651-7","""sloppy""","""boroboro.wav""","191","worn out","RI","different","0","D","sloppy","Y","19"
"","2458","same-different-html","83","703695","0.0-3.0-80.0","","6651-7","""shivering""","""buku.wav""","191","chubby","SRI","different","0","D","shivering","Y","20"
"","2374","same-different-html","84","709072","0.0-3.0-81.0","","6651-7","""useless""","""damedame.wav""","191","useless","RNAdj","same","1","T","useless","Y","21"
"","1965","same-different-html","85","714041","0.0-3.0-82.0","","6651-7","""rash""","""mucha.wav""","191","rash","NAdj","same","1","T","rash","Y","22"
"","1832","same-different-html","86","718877","0.0-3.0-83.0","","6651-7","""decisive""","""hisohiso.wav""","90","whispering","RI","different","1","D","decisive","Y","23"
"","1154","same-different-html","87","723035","0.0-3.0-84.0","","6651-7","""chatty""","""yawayawa.wav""","191","fragile","RNAdj","different","0","D","chatty","Y","24"
"","1560","same-different-html","88","727599","0.0-3.0-85.0","","6651-7","""messy""","""gochagocha.wav""","191","messy","RI","same","1","T","messy","Y","25"
"","2164","same-different-html","89","732767","0.0-3.0-86.0","","6651-7","""chubby""","""buku.wav""","191","chubby","SRI","same","1","T","chubby","Y","26"
"","1788","same-different-html","90","737561","0.0-3.0-87.0","","6651-7","""whispering""","""hisohiso.wav""","90","whispering","RI","same","0","T","whispering","Y","27"
"","2192","same-different-html","91","742757","0.0-3.0-88.0","","6651-7","""hasty""","""jikkuri.wav""","90","careful","NRI","different","1","D","hasty","Y","28"
"","2130","same-different-html","92","747892","0.0-3.0-89.0","","6651-7","""offended""","""kachinkachin.wav""","90","offended","RNRI","same","0","T","offended","Y","29"
"","1748","same-different-html","93","752648","0.0-3.0-90.0","","6651-7","""sudden""","""patapata.wav""","191","sudden","RNRI","same","1","T","sudden","Y","30"
"","2295","same-different-html","94","757946","0.0-3.0-91.0","","6651-7","""sullen""","""nopperinopperi.wav""","90","smooth","RNRI","different","1","D","sullen","Y","31"
"","1996","same-different-html","95","762946","0.0-3.0-92.0","","6651-7","""sullen""","""musu.wav""","191","sullen","NRI","same","1","T","sullen","Y","32"
"","2628","same-different-html","96","768580","0.0-3.0-93.0","","6651-7","""sudden""","""hima.wav""","191","free","NAdj","different","0","D","sudden","Y","33"
"","1931","same-different-html","97","773516","0.0-3.0-94.0","","6651-7","""chubby""","""bisshiri.wav""","191","crowded","NRI","different","0","D","chubby","Y","34"
"","1887","same-different-html","98","778408","0.0-3.0-95.0","","6651-7","""careful""","""jikkuri.wav""","191","careful","NRI","same","1","T","careful","Y","35"
"","2377","same-different-html","99","783789","0.0-3.0-96.0","","6651-7","""crowded""","""bisshiri.wav""","90","crowded","NRI","same","0","T","crowded","Y","36"
"","1989","same-different-html","100","788783","0.0-3.0-97.0","","6651-7","""pure""","""mukumuku.wav""","191","pure","RNAdj","same","1","T","pure","Y","37"
"","1959","same-different-html","101","793746","0.0-3.0-98.0","","6651-7","""hesitant""","""bera.wav""","191","chatty","SRI","different","0","D","hesitant","Y","38"
"","2129","same-different-html","102","799335","0.0-3.0-99.0","","6651-7","""crowded""","""buru.wav""","90","shivering","SRI","different","1","D","crowded","Y","39"
"","2215","same-different-html","103","804555","0.0-3.0-100.0","","6651-7","""useless""","""pisha.wav""","90","decisive","NRI","different","1","D","useless","Y","40"
"","1681","same-different-html","104","809242","0.0-3.0-101.0","","6651-7","""decisive""","""pisha.wav""","191","decisive","NRI","same","1","T","decisive","Y","41"
"","2212","same-different-html","105","814458","0.0-3.0-102.0","","6651-7","""smooth""","""mojimoji.wav""","191","hesitant","RI","different","0","D","smooth","Y","42"
"","2537","same-different-html","106","819999","0.0-3.0-103.0","","6651-7","""shivering""","""buru.wav""","191","shivering","SRI","same","1","T","shivering","Y","43"
"","1673","same-different-html","107","824677","0.0-3.0-104.0","","6651-7","""free""","""hima.wav""","191","free","NAdj","same","1","T","free","Y","44"
"","1927","same-different-html","108","829608","0.0-3.0-105.0","","6651-7","""whispering""","""mucha.wav""","90","rash","NAdj","different","1","D","whispering","Y","45"
"","1999","same-different-html","109","834612","0.0-3.0-106.0","","6651-7","""worn out""","""boroboro.wav""","191","worn out","RI","same","1","T","worn out","Y","46"
"","2299","same-different-html","110","839916","0.0-3.0-107.0","","6651-7","""harsh""","""shinnarishinnari.wav""","191","supple","RNRI","different","0","D","harsh","Y","47"
"","2273","same-different-html","111","845192","0.0-3.0-108.0","","6651-7","""fragile""","""yawayawa.wav""","90","fragile","RNAdj","same","0","T","fragile","Y","48"
"[{""page_index"":0,""viewing_time"":15889}]","15889","instructions","112","862083","0.0-3.0-109.0","","","","","","","","","","","","",""
