"view_history","rt","trial_type","trial_index","time_elapsed","internal_node_id","responses","Id","word","sound","key_press","TrueMeaning","WordType","answer","correct","TrialType","TargetMeaning","LegalTrial","trialNum"
"[{""page_index"":0,""viewing_time"":7958}]","7958","instructions","0","7958","0.0-0.0","","","","","","","","","","","","",""
"[{""page_index"":0,""viewing_time"":2264},{""page_index"":1,""viewing_time"":5066},{""page_index"":2,""viewing_time"":4485},{""page_index"":3,""viewing_time"":19880},{""page_index"":4,""viewing_time"":202285}]","233980","instructions","1","241940","0.0-1.0","","","","","","","","","","","","",""
"","27154","survey-multi-choice","2","269100","0.0-2.0","{""Q0"":""Yes"",""Q1"":""Yes"",""Q2"":""Yes"",""Q3"":""Yes"",""Q4"":""Yes""}","","","","","","","","","","","",""
"[{""page_index"":0,""viewing_time"":3371},{""page_index"":1,""viewing_time"":18525}]","21896","instructions","3","290997","0.0-3.0-0.0","","","","","","","","","","","","",""
"","2558","same-different-html-trial","4","299575","0.0-3.0-1.0","","0","""sushi""","""prc_sushi.wav""","32","","","","","","","",""
"[{""page_index"":0,""viewing_time"":25174}]","25175","instructions","5","325753","0.0-3.0-2.0","","","","","","","","","","","","",""
"","1572","same-different-html","6","329332","0.0-3.0-3.0","","0","""sushi""","""prc_sushi.wav""","191","","","same","1","","","0",""
"[{""page_index"":0,""viewing_time"":22631}]","22632","instructions","7","352969","0.0-3.0-4.0","","","","","","","","","","","","",""
"","1969","same-different-html","8","356947","0.0-3.0-5.0","","0","""cat""","""prc_sushi.wav""","90","","","different","1","","","0",""
"[{""page_index"":0,""viewing_time"":14778},{""page_index"":1,""viewing_time"":5903}]","20682","instructions","9","378629","0.0-3.0-6.0","","","","","","","","","","","","",""
"","7433","same-different-html-trial","10","392079","0.0-3.0-7.0","","0","""thank you""","""prc_arigato.wav""","32","","","","","","","",""
"[{""page_index"":0,""viewing_time"":23378}]","23378","instructions","11","416459","0.0-3.0-8.0","","","","","","","","","","","","",""
"","1612","same-different-html","12","420082","0.0-3.0-9.0","","0","""thank you""","""prc_arigato.wav""","191","","","same","1","","","0",""
"","2066","same-different-html","13","425161","0.0-3.0-10.0","","0","""cat""","""prc_arigato.wav""","90","","","different","1","","","0",""
"[{""page_index"":0,""viewing_time"":19908},{""page_index"":1,""viewing_time"":49597}]","69505","instructions","14","495668","0.0-3.0-11.0","","","","","","","","","","","","",""
"","4447","same-different-html-trial","15","506127","0.0-3.0-12.0","","6342-8","""rude""","""zukezuke.wav""","32","rude","RI","","","","","","1"
"","34721","same-different-html-trial","16","547870","0.0-3.0-13.0","","6342-8","""supple""","""shinnari.wav""","32","supple","NRI","","","","","","2"
"","4915","same-different-html-trial","17","559804","0.0-3.0-14.0","","6342-8","""tasteless""","""yabo.wav""","32","tasteless","NAdj","","","","","","3"
"","15958","same-different-html-trial","18","582778","0.0-3.0-15.0","","6342-8","""vulgar""","""zokuzoku.wav""","32","vulgar","RNAdj","","","","","","4"
"","22105","same-different-html-trial","19","611902","0.0-3.0-16.0","","6342-8","""smug""","""kiza.wav""","32","smug","NAdj","","","","","","5"
"","4171","same-different-html-trial","20","623083","0.0-3.0-17.0","","6342-8","""stiff""","""gowa.wav""","32","stiff","SRI","","","","","","6"
"","7381","same-different-html-trial","21","637488","0.0-3.0-18.0","","6342-8","""excessive""","""kado.wav""","32","excessive","NAdj","","","","","","7"
"","7697","same-different-html-trial","22","652198","0.0-3.0-19.0","","6342-8","""to change ocmpletely""","""gara.wav""","32","to change ocmpletely","NRI","","","","","","8"
"","6480","same-different-html-trial","23","665694","0.0-3.0-20.0","","6342-8","""exact""","""kakkiri.wav""","32","exact","NRI","","","","","","9"
"","6437","same-different-html-trial","24","679152","0.0-3.0-21.0","","6342-8","""sturdy""","""gashigashi.wav""","32","sturdy","RNRI","","","","","","10"
"","4588","same-different-html-trial","25","690757","0.0-3.0-22.0","","6342-8","""fat""","""debudebu.wav""","32","fat","RI","","","","","","11"
"","9295","same-different-html-trial","26","707073","0.0-3.0-23.0","","6342-8","""harsh""","""kokukoku.wav""","32","harsh","RNAdj","","","","","","12"
"","20473","same-different-html-trial","27","734560","0.0-3.0-24.0","","6342-8","""shivering""","""buruburu.wav""","32","shivering","RI","","","","","","13"
"","6122","same-different-html-trial","28","747695","0.0-3.0-25.0","","6342-8","""rare""","""maremare.wav""","32","rare","RNAdj","","","","","","14"
"","6196","same-different-html-trial","29","760904","0.0-3.0-26.0","","6342-8","""plump""","""potchari.wav""","32","plump","NRI","","","","","","15"
"","8322","same-different-html-trial","30","776243","0.0-3.0-27.0","","6342-8","""happy""","""uki.wav""","32","happy","SRI","","","","","","16"
"","5282","same-different-html-trial","31","788550","0.0-3.0-28.0","","6342-8","""chatty""","""bera.wav""","32","chatty","SRI","","","","","","17"
"","31069","same-different-html-trial","32","826634","0.0-3.0-29.0","","6342-8","""suspenseful""","""harahara.wav""","32","suspenseful","RI","","","","","","18"
"","8129","same-different-html-trial","33","841783","0.0-3.0-30.0","","6342-8","""deficient""","""fubi.wav""","32","deficient","NAdj","","","","","","19"
"","4467","same-different-html-trial","34","853272","0.0-3.0-31.0","","6342-8","""rash""","""muchamucha.wav""","32","rash","RNAdj","","","","","","20"
"","3056","same-different-html-trial","35","863343","0.0-3.0-32.0","","6342-8","""sudden""","""patapata.wav""","32","sudden","RNRI","","","","","","21"
"","4952","same-different-html-trial","36","875315","0.0-3.0-33.0","","6342-8","""careful""","""jikkurijikkuri.wav""","32","careful","RNRI","","","","","","22"
"","1983","same-different-html-trial","37","884323","0.0-3.0-34.0","","6342-8","""agitated""","""hiku.wav""","32","agitated","SRI","","","","","","23"
"","3210","same-different-html-trial","38","894556","0.0-3.0-35.0","","6342-8","""decisive""","""pishapisha.wav""","32","decisive","RNRI","","","","","","24"
"","3418","same-different-html-trial","39","904995","0.0-3.0-36.0","","6342-8","""rare""","""maremare.wav""","32","rare","RNAdj","","","","","","25"
"","4849","same-different-html-trial","40","916866","0.0-3.0-37.0","","6342-8","""stiff""","""gowa.wav""","32","stiff","SRI","","","","","","26"
"","3155","same-different-html-trial","41","927037","0.0-3.0-38.0","","6342-8","""suspenseful""","""harahara.wav""","32","suspenseful","RI","","","","","","27"
"","1374","same-different-html-trial","42","935423","0.0-3.0-39.0","","6342-8","""shivering""","""buruburu.wav""","32","shivering","RI","","","","","","28"
"","3185","same-different-html-trial","43","945629","0.0-3.0-40.0","","6342-8","""tasteless""","""yabo.wav""","32","tasteless","NAdj","","","","","","29"
"","4555","same-different-html-trial","44","957210","0.0-3.0-41.0","","6342-8","""to change ocmpletely""","""gara.wav""","32","to change ocmpletely","NRI","","","","","","30"
"","3336","same-different-html-trial","45","967563","0.0-3.0-42.0","","6342-8","""sturdy""","""gashigashi.wav""","32","sturdy","RNRI","","","","","","31"
"","3474","same-different-html-trial","46","978057","0.0-3.0-43.0","","6342-8","""harsh""","""kokukoku.wav""","32","harsh","RNAdj","","","","","","32"
"","1878","same-different-html-trial","47","986954","0.0-3.0-44.0","","6342-8","""decisive""","""pishapisha.wav""","32","decisive","RNRI","","","","","","33"
"","3773","same-different-html-trial","48","997743","0.0-3.0-45.0","","6342-8","""excessive""","""kado.wav""","32","excessive","NAdj","","","","","","34"
"","4618","same-different-html-trial","49","1009377","0.0-3.0-46.0","","6342-8","""careful""","""jikkurijikkuri.wav""","32","careful","RNRI","","","","","","35"
"","1387","same-different-html-trial","50","1017789","0.0-3.0-47.0","","6342-8","""agitated""","""hiku.wav""","32","agitated","SRI","","","","","","36"
"","3485","same-different-html-trial","51","1028290","0.0-3.0-48.0","","6342-8","""rash""","""muchamucha.wav""","32","rash","RNAdj","","","","","","37"
"","5121","same-different-html-trial","52","1040428","0.0-3.0-49.0","","6342-8","""supple""","""shinnari.wav""","32","supple","NRI","","","","","","38"
"","4971","same-different-html-trial","53","1052424","0.0-3.0-50.0","","6342-8","""rude""","""zukezuke.wav""","32","rude","RI","","","","","","39"
"","1345","same-different-html-trial","54","1060797","0.0-3.0-51.0","","6342-8","""happy""","""uki.wav""","32","happy","SRI","","","","","","40"
"","1577","same-different-html-trial","55","1069390","0.0-3.0-52.0","","6342-8","""deficient""","""fubi.wav""","32","deficient","NAdj","","","","","","41"
"","986","same-different-html-trial","56","1077398","0.0-3.0-53.0","","6342-8","""vulgar""","""zokuzoku.wav""","32","vulgar","RNAdj","","","","","","42"
"","2808","same-different-html-trial","57","1087231","0.0-3.0-54.0","","6342-8","""plump""","""potchari.wav""","32","plump","NRI","","","","","","43"
"","2712","same-different-html-trial","58","1096965","0.0-3.0-55.0","","6342-8","""chatty""","""bera.wav""","32","chatty","SRI","","","","","","44"
"","1593","same-different-html-trial","59","1105581","0.0-3.0-56.0","","6342-8","""fat""","""debudebu.wav""","32","fat","RI","","","","","","45"
"","1711","same-different-html-trial","60","1114312","0.0-3.0-57.0","","6342-8","""exact""","""kakkiri.wav""","32","exact","NRI","","","","","","46"
"","1547","same-different-html-trial","61","1122882","0.0-3.0-58.0","","6342-8","""sudden""","""patapata.wav""","32","sudden","RNRI","","","","","","47"
"","2564","same-different-html-trial","62","1132468","0.0-3.0-59.0","","6342-8","""smug""","""kiza.wav""","32","smug","NAdj","","","","","","48"
"[{""page_index"":0,""viewing_time"":11814}]","11814","instructions","63","1145284","0.0-3.0-60.0","","","","","","","","","","","","",""
"","6816","same-different-html","64","1154106","0.0-3.0-61.0","","6342-8","""suspenseful""","""kado.wav""","90","excessive","NAdj","different","1","D","suspenseful","Y","1"
"","3221","same-different-html","65","1160339","0.0-3.0-62.0","","6342-8","""happy""","""uki.wav""","191","happy","SRI","same","1","T","happy","Y","2"
"","3079","same-different-html","66","1166429","0.0-3.0-63.0","","6342-8","""to change ocmpletely""","""hiku.wav""","90","agitated","SRI","different","1","D","to change ocmpletely","Y","3"
"","2164","same-different-html","67","1171605","0.0-3.0-64.0","","6342-8","""sturdy""","""gashigashi.wav""","191","sturdy","RNRI","same","1","T","sturdy","Y","4"
"","2683","same-different-html","68","1177305","0.0-3.0-65.0","","6342-8","""excessive""","""kado.wav""","90","excessive","NAdj","same","0","T","excessive","Y","5"
"","2050","same-different-html","69","1182367","0.0-3.0-66.0","","6342-8","""rash""","""muchamucha.wav""","191","rash","RNAdj","same","1","T","rash","Y","6"
"","2458","same-different-html","70","1187840","0.0-3.0-67.0","","6342-8","""smug""","""kiza.wav""","191","smug","NAdj","same","1","T","smug","Y","7"
"","2628","same-different-html","71","1193478","0.0-3.0-68.0","","6342-8","""sudden""","""zukezuke.wav""","90","rude","RI","different","1","D","sudden","Y","8"
"","3153","same-different-html","72","1199647","0.0-3.0-69.0","","6342-8","""harsh""","""kokukoku.wav""","191","harsh","RNAdj","same","1","T","harsh","Y","9"
"","3604","same-different-html","73","1206261","0.0-3.0-70.0","","6342-8","""rude""","""debudebu.wav""","90","fat","RI","different","1","D","rude","Y","10"
"","2829","same-different-html","74","1212102","0.0-3.0-71.0","","6342-8","""harsh""","""buruburu.wav""","191","shivering","RI","different","0","D","harsh","Y","11"
"","1307","same-different-html","75","1216422","0.0-3.0-72.0","","6342-8","""rude""","""zukezuke.wav""","191","rude","RI","same","1","T","rude","Y","12"
"","2783","same-different-html","76","1222221","0.0-3.0-73.0","","6342-8","""agitated""","""pishapisha.wav""","90","decisive","RNRI","different","1","D","agitated","Y","13"
"","2749","same-different-html","77","1227985","0.0-3.0-74.0","","6342-8","""supple""","""shinnari.wav""","191","supple","NRI","same","1","T","supple","Y","14"
"","3689","same-different-html","78","1234689","0.0-3.0-75.0","","6342-8","""tasteless""","""maremare.wav""","90","rare","RNAdj","different","1","D","tasteless","Y","15"
"","1663","same-different-html","79","1239365","0.0-3.0-76.0","","6342-8","""chatty""","""bera.wav""","191","chatty","SRI","same","1","T","chatty","Y","16"
"","2112","same-different-html","80","1244488","0.0-3.0-77.0","","6342-8","""supple""","""jikkurijikkuri.wav""","191","careful","RNRI","different","0","D","supple","Y","17"
"","2471","same-different-html","81","1249970","0.0-3.0-78.0","","6342-8","""sudden""","""patapata.wav""","90","sudden","RNRI","same","0","T","sudden","Y","18"
"","2429","same-different-html","82","1255410","0.0-3.0-79.0","","6342-8","""plump""","""gara.wav""","90","to change ocmpletely","NRI","different","1","D","plump","Y","19"
"","2589","same-different-html","83","1261013","0.0-3.0-80.0","","6342-8","""exact""","""uki.wav""","90","happy","SRI","different","1","D","exact","Y","20"
"","1811","same-different-html","84","1265829","0.0-3.0-81.0","","6342-8","""vulgar""","""kiza.wav""","90","smug","NAdj","different","1","D","vulgar","Y","21"
"","1876","same-different-html","85","1270717","0.0-3.0-82.0","","6342-8","""fat""","""shinnari.wav""","90","supple","NRI","different","1","D","fat","Y","22"
"","3580","same-different-html","86","1277305","0.0-3.0-83.0","","6342-8","""careful""","""jikkurijikkuri.wav""","191","careful","RNRI","same","1","T","careful","Y","23"
"","1565","same-different-html","87","1281881","0.0-3.0-84.0","","6342-8","""rash""","""yabo.wav""","90","tasteless","NAdj","different","1","D","rash","Y","24"
"","1917","same-different-html","88","1286812","0.0-3.0-85.0","","6342-8","""exact""","""kakkiri.wav""","191","exact","NRI","same","1","T","exact","Y","25"
"","1517","same-different-html","89","1291339","0.0-3.0-86.0","","6342-8","""shivering""","""buruburu.wav""","191","shivering","RI","same","1","T","shivering","Y","26"
"","1539","same-different-html","90","1295889","0.0-3.0-87.0","","6342-8","""sturdy""","""fubi.wav""","90","deficient","NAdj","different","1","D","sturdy","Y","27"
"","1782","same-different-html","91","1300686","0.0-3.0-88.0","","6342-8","""rare""","""maremare.wav""","191","rare","RNAdj","same","1","T","rare","Y","28"
"","1793","same-different-html","92","1305488","0.0-3.0-89.0","","6342-8","""stiff""","""bera.wav""","90","chatty","SRI","different","1","D","stiff","Y","29"
"","2691","same-different-html","93","1311195","0.0-3.0-90.0","","6342-8","""decisive""","""pishapisha.wav""","191","decisive","RNRI","same","1","T","decisive","Y","30"
"","1535","same-different-html","94","1315736","0.0-3.0-91.0","","6342-8","""rare""","""kokukoku.wav""","90","harsh","RNAdj","different","1","D","rare","Y","31"
"","1705","same-different-html","95","1320448","0.0-3.0-92.0","","6342-8","""deficient""","""fubi.wav""","90","deficient","NAdj","same","0","T","deficient","Y","32"
"","2150","same-different-html","96","1325609","0.0-3.0-93.0","","6342-8","""agitated""","""hiku.wav""","90","agitated","SRI","same","0","T","agitated","Y","33"
"","1663","same-different-html","97","1330281","0.0-3.0-94.0","","6342-8","""vulgar""","""zokuzoku.wav""","191","vulgar","RNAdj","same","1","T","vulgar","Y","34"
"","1586","same-different-html","98","1334871","0.0-3.0-95.0","","6342-8","""fat""","""debudebu.wav""","191","fat","RI","same","1","T","fat","Y","35"
"","1861","same-different-html","99","1339743","0.0-3.0-96.0","","6342-8","""to change ocmpletely""","""gara.wav""","191","to change ocmpletely","NRI","same","1","T","to change ocmpletely","Y","36"
"","2870","same-different-html","100","1345624","0.0-3.0-97.0","","6342-8","""decisive""","""patapata.wav""","191","sudden","RNRI","different","0","D","decisive","Y","37"
"","1330","same-different-html","101","1349956","0.0-3.0-98.0","","6342-8","""chatty""","""harahara.wav""","90","suspenseful","RI","different","1","D","chatty","Y","38"
"","1378","same-different-html","102","1354341","0.0-3.0-99.0","","6342-8","""happy""","""gowa.wav""","191","stiff","SRI","different","0","D","happy","Y","39"
"","5111","same-different-html","103","1362460","0.0-3.0-100.0","","6342-8","""smug""","""zokuzoku.wav""","191","vulgar","RNAdj","different","0","D","smug","Y","40"
"","1153","same-different-html","104","1366626","0.0-3.0-101.0","","6342-8","""stiff""","""gowa.wav""","191","stiff","SRI","same","1","T","stiff","Y","41"
"","1404","same-different-html","105","1371043","0.0-3.0-102.0","","6342-8","""tasteless""","""yabo.wav""","191","tasteless","NAdj","same","1","T","tasteless","Y","42"
"","1321","same-different-html","106","1375378","0.0-3.0-103.0","","6342-8","""plump""","""potchari.wav""","191","plump","NRI","same","1","T","plump","Y","43"
"","1213","same-different-html","107","1379606","0.0-3.0-104.0","","6342-8","""shivering""","""kakkiri.wav""","90","exact","NRI","different","1","D","shivering","Y","44"
"","1664","same-different-html","108","1384283","0.0-3.0-105.0","","6342-8","""deficient""","""muchamucha.wav""","90","rash","RNAdj","different","1","D","deficient","Y","45"
"","1350","same-different-html","109","1388643","0.0-3.0-106.0","","6342-8","""suspenseful""","""harahara.wav""","191","suspenseful","RI","same","1","T","suspenseful","Y","46"
"","1577","same-different-html","110","1393228","0.0-3.0-107.0","","6342-8","""excessive""","""gashigashi.wav""","191","sturdy","RNRI","different","0","D","excessive","Y","47"
"","1599","same-different-html","111","1397841","0.0-3.0-108.0","","6342-8","""careful""","""potchari.wav""","191","plump","NRI","different","0","D","careful","Y","48"
"[{""page_index"":0,""viewing_time"":16806}]","16806","instructions","112","1415651","0.0-3.0-109.0","","","","","","","","","","","","",""
