"view_history","rt","trial_type","trial_index","time_elapsed","internal_node_id","responses","Id","word","sound","key_press","TrueMeaning","WordType","answer","correct","TrialType","TargetMeaning","LegalTrial","trialNum"
"[{""page_index"":0,""viewing_time"":15584}]","15585","instructions","0","15587","0.0-0.0","","","","","","","","","","","","",""
"[{""page_index"":0,""viewing_time"":5742},{""page_index"":1,""viewing_time"":11103},{""page_index"":2,""viewing_time"":11006},{""page_index"":3,""viewing_time"":12066},{""page_index"":4,""viewing_time"":44550}]","84467","instructions","1","100055","0.0-1.0","","","","","","","","","","","","",""
"","19932","survey-multi-choice","2","119995","0.0-2.0","{""Q0"":""Yes"",""Q1"":""Yes"",""Q2"":""Yes"",""Q3"":""Yes"",""Q4"":""Yes""}","","","","","","","","","","","",""
"[{""page_index"":0,""viewing_time"":1498},{""page_index"":1,""viewing_time"":4761}]","6259","instructions","3","126254","0.0-3.0-0.0","","","","","","","","","","","","",""
"","3424","same-different-html-trial","4","135689","0.0-3.0-1.0","","0","""sushi""","""prc_sushi.wav""","32","","","","","","","",""
"[{""page_index"":0,""viewing_time"":8706}]","8707","instructions","5","145396","0.0-3.0-2.0","","","","","","","","","","","","",""
"","4392","same-different-html","6","151792","0.0-3.0-3.0","","0","""sushi""","""prc_sushi.wav""","191","","","same","1","","","0",""
"[{""page_index"":0,""viewing_time"":3339}]","3340","instructions","7","156134","0.0-3.0-4.0","","","","","","","","","","","","",""
"","3395","same-different-html","8","161532","0.0-3.0-5.0","","0","""cat""","""prc_sushi.wav""","90","","","different","1","","","0",""
"[{""page_index"":0,""viewing_time"":6046},{""page_index"":1,""viewing_time"":2556}]","8603","instructions","9","171135","0.0-3.0-6.0","","","","","","","","","","","","",""
"","4222","same-different-html-trial","10","181359","0.0-3.0-7.0","","0","""thank you""","""prc_arigato.wav""","32","","","","","","","",""
"[{""page_index"":0,""viewing_time"":4098}]","4098","instructions","11","186459","0.0-3.0-8.0","","","","","","","","","","","","",""
"","3104","same-different-html","12","191567","0.0-3.0-9.0","","0","""thank you""","""prc_arigato.wav""","191","","","same","1","","","0",""
"","2827","same-different-html","13","197399","0.0-3.0-10.0","","0","""cat""","""prc_arigato.wav""","90","","","different","1","","","0",""
"[{""page_index"":0,""viewing_time"":2334},{""page_index"":1,""viewing_time"":13717}]","16051","instructions","14","214451","0.0-3.0-11.0","","","","","","","","","","","","",""
"","2359","same-different-html-trial","15","222819","0.0-3.0-12.0","","131-1","""sloppy""","""zatsu.wav""","32","sloppy","NAdj","","","","","","1"
"","2405","same-different-html-trial","16","232231","0.0-3.0-13.0","","131-1","""fat""","""debu.wav""","32","fat","SRI","","","","","","2"
"","2167","same-different-html-trial","17","241402","0.0-3.0-14.0","","131-1","""glossy""","""tsuyatsuya.wav""","32","glossy","RI","","","","","","3"
"","2093","same-different-html-trial","18","250501","0.0-3.0-15.0","","131-1","""noisy""","""gaya.wav""","32","noisy","SRI","","","","","","4"
"","2416","same-different-html-trial","19","259921","0.0-3.0-16.0","","131-1","""nonchalantly""","""kerokero.wav""","32","nonchalantly","RNRI","","","","","","5"
"","2540","same-different-html-trial","20","269467","0.0-3.0-17.0","","131-1","""harsh""","""koku.wav""","32","harsh","NAdj","","","","","","6"
"","2654","same-different-html-trial","21","279126","0.0-3.0-18.0","","131-1","""crowded""","""bisshiribisshiri.wav""","32","crowded","RNRI","","","","","","7"
"","2656","same-different-html-trial","22","288786","0.0-3.0-19.0","","131-1","""chubby""","""bukubuku.wav""","32","chubby","RI","","","","","","8"
"","2878","same-different-html-trial","23","298673","0.0-3.0-20.0","","131-1","""fast asleep""","""gussuri.wav""","32","fast asleep","NRI","","","","","","9"
"","3120","same-different-html-trial","24","308796","0.0-3.0-21.0","","131-1","""careful""","""jikkurijikkuri.wav""","32","careful","RNRI","","","","","","10"
"","2688","same-different-html-trial","25","318489","0.0-3.0-22.0","","131-1","""sullen""","""musu.wav""","32","sullen","NRI","","","","","","11"
"","6052","same-different-html-trial","26","331548","0.0-3.0-23.0","","131-1","""pure""","""mukumuku.wav""","32","pure","RNAdj","","","","","","12"
"","2663","same-different-html-trial","27","341217","0.0-3.0-24.0","","131-1","""suspenseful""","""hara.wav""","32","suspenseful","SRI","","","","","","13"
"","2373","same-different-html-trial","28","350596","0.0-3.0-25.0","","131-1","""worn out""","""boroboro.wav""","32","worn out","RI","","","","","","14"
"","1976","same-different-html-trial","29","359577","0.0-3.0-26.0","","131-1","""humid""","""mushimushi.wav""","32","humid","RI","","","","","","15"
"","3956","same-different-html-trial","30","370545","0.0-3.0-27.0","","131-1","""plump""","""potcharipotchari.wav""","32","plump","RNRI","","","","","","16"
"","2292","same-different-html-trial","31","379843","0.0-3.0-28.0","","131-1","""rare""","""maremare.wav""","32","rare","RNAdj","","","","","","17"
"","2889","same-different-html-trial","32","389738","0.0-3.0-29.0","","131-1","""useless""","""damedame.wav""","32","useless","RNAdj","","","","","","18"
"","2535","same-different-html-trial","33","399279","0.0-3.0-30.0","","131-1","""excessive""","""kadokado.wav""","32","excessive","RNAdj","","","","","","19"
"","2620","same-different-html-trial","34","408906","0.0-3.0-31.0","","131-1","""sudden""","""pata.wav""","32","sudden","NRI","","","","","","20"
"","2853","same-different-html-trial","35","418773","0.0-3.0-32.0","","131-1","""clear""","""kukkiri.wav""","32","clear","NRI","","","","","","21"
"","1665","same-different-html-trial","36","427440","0.0-3.0-33.0","","131-1","""stupid""","""baka.wav""","32","stupid","NAdj","","","","","","22"
"","1950","same-different-html-trial","37","436396","0.0-3.0-34.0","","131-1","""chatty""","""bera.wav""","32","chatty","SRI","","","","","","23"
"","2628","same-different-html-trial","38","446036","0.0-3.0-35.0","","131-1","""beneficial""","""toku.wav""","32","beneficial","NAdj","","","","","","24"
"","3085","same-different-html-trial","39","456135","0.0-3.0-36.0","","131-1","""worn out""","""boroboro.wav""","32","worn out","RI","","","","","","25"
"","2305","same-different-html-trial","40","465444","0.0-3.0-37.0","","131-1","""pure""","""mukumuku.wav""","32","pure","RNAdj","","","","","","26"
"","2333","same-different-html-trial","41","474783","0.0-3.0-38.0","","131-1","""sloppy""","""zatsu.wav""","32","sloppy","NAdj","","","","","","27"
"","3796","same-different-html-trial","42","485584","0.0-3.0-39.0","","131-1","""plump""","""potcharipotchari.wav""","32","plump","RNRI","","","","","","28"
"","3541","same-different-html-trial","43","496130","0.0-3.0-40.0","","131-1","""fat""","""debu.wav""","32","fat","SRI","","","","","","29"
"","2259","same-different-html-trial","44","505394","0.0-3.0-41.0","","131-1","""chubby""","""bukubuku.wav""","32","chubby","RI","","","","","","30"
"","4112","same-different-html-trial","45","516515","0.0-3.0-42.0","","131-1","""useless""","""damedame.wav""","32","useless","RNAdj","","","","","","31"
"","1905","same-different-html-trial","46","525746","0.0-3.0-43.0","","131-1","""rare""","""maremare.wav""","32","rare","RNAdj","","","","","","32"
"","4218","same-different-html-trial","47","536969","0.0-3.0-44.0","","131-1","""sudden""","""pata.wav""","32","sudden","NRI","","","","","","33"
"","6229","same-different-html-trial","48","550203","0.0-3.0-45.0","","131-1","""stupid""","""baka.wav""","32","stupid","NAdj","","","","","","34"
"","2494","same-different-html-trial","49","559704","0.0-3.0-46.0","","131-1","""clear""","""kukkiri.wav""","32","clear","NRI","","","","","","35"
"","1598","same-different-html-trial","50","568310","0.0-3.0-47.0","","131-1","""nonchalantly""","""kerokero.wav""","32","nonchalantly","RNRI","","","","","","36"
"","1691","same-different-html-trial","51","577006","0.0-3.0-48.0","","131-1","""suspenseful""","""hara.wav""","32","suspenseful","SRI","","","","","","37"
"","2156","same-different-html-trial","52","586166","0.0-3.0-49.0","","131-1","""noisy""","""gaya.wav""","32","noisy","SRI","","","","","","38"
"","1924","same-different-html-trial","53","595094","0.0-3.0-50.0","","131-1","""sullen""","""musu.wav""","32","sullen","NRI","","","","","","39"
"","2411","same-different-html-trial","54","604510","0.0-3.0-51.0","","131-1","""beneficial""","""toku.wav""","32","beneficial","NAdj","","","","","","40"
"","4659","same-different-html-trial","55","616174","0.0-3.0-52.0","","131-1","""fast asleep""","""gussuri.wav""","32","fast asleep","NRI","","","","","","41"
"","4150","same-different-html-trial","56","627330","0.0-3.0-53.0","","131-1","""crowded""","""bisshiribisshiri.wav""","32","crowded","RNRI","","","","","","42"
"","3035","same-different-html-trial","57","637368","0.0-3.0-54.0","","131-1","""harsh""","""koku.wav""","32","harsh","NAdj","","","","","","43"
"","2273","same-different-html-trial","58","646647","0.0-3.0-55.0","","131-1","""glossy""","""tsuyatsuya.wav""","32","glossy","RI","","","","","","44"
"","2071","same-different-html-trial","59","655724","0.0-3.0-56.0","","131-1","""careful""","""jikkurijikkuri.wav""","32","careful","RNRI","","","","","","45"
"","2431","same-different-html-trial","60","665161","0.0-3.0-57.0","","131-1","""excessive""","""kadokado.wav""","32","excessive","RNAdj","","","","","","46"
"","1098","same-different-html-trial","61","673263","0.0-3.0-58.0","","131-1","""chatty""","""bera.wav""","32","chatty","SRI","","","","","","47"
"","2162","same-different-html-trial","62","682430","0.0-3.0-59.0","","131-1","""humid""","""mushimushi.wav""","32","humid","RI","","","","","","48"
"[{""page_index"":0,""viewing_time"":14807}]","14807","instructions","63","698238","0.0-3.0-60.0","","","","","","","","","","","","",""
"","2143","same-different-html","64","702383","0.0-3.0-61.0","","131-1","""pure""","""mukumuku.wav""","191","pure","RNAdj","same","1","T","pure","Y","1"
"","2115","same-different-html","65","707502","0.0-3.0-62.0","","131-1","""noisy""","""gaya.wav""","191","noisy","SRI","same","1","T","noisy","Y","2"
"","1733","same-different-html","66","712237","0.0-3.0-63.0","","131-1","""humid""","""kadokado.wav""","90","excessive","RNAdj","different","1","D","humid","Y","3"
"","2397","same-different-html","67","717636","0.0-3.0-64.0","","131-1","""beneficial""","""kerokero.wav""","191","nonchalantly","RNRI","different","0","D","beneficial","Y","4"
"","2618","same-different-html","68","723258","0.0-3.0-65.0","","131-1","""glossy""","""tsuyatsuya.wav""","191","glossy","RI","same","1","T","glossy","Y","5"
"","3138","same-different-html","69","729400","0.0-3.0-66.0","","131-1","""suspenseful""","""bukubuku.wav""","90","chubby","RI","different","1","D","suspenseful","Y","6"
"","3067","same-different-html","70","735470","0.0-3.0-67.0","","131-1","""rare""","""mushimushi.wav""","90","humid","RI","different","1","D","rare","Y","7"
"","3106","same-different-html","71","741576","0.0-3.0-68.0","","131-1","""worn out""","""bisshiribisshiri.wav""","90","crowded","RNRI","different","1","D","worn out","Y","8"
"","2520","same-different-html","72","747098","0.0-3.0-69.0","","131-1","""excessive""","""kadokado.wav""","191","excessive","RNAdj","same","1","T","excessive","Y","9"
"","2701","same-different-html","73","752801","0.0-3.0-70.0","","131-1","""worn out""","""boroboro.wav""","191","worn out","RI","same","1","T","worn out","Y","10"
"","3016","same-different-html","74","758820","0.0-3.0-71.0","","131-1","""clear""","""damedame.wav""","90","useless","RNAdj","different","1","D","clear","Y","11"
"","2465","same-different-html","75","764291","0.0-3.0-72.0","","131-1","""sudden""","""baka.wav""","191","stupid","NAdj","different","0","D","sudden","Y","12"
"","2511","same-different-html","76","769804","0.0-3.0-73.0","","131-1","""stupid""","""baka.wav""","90","stupid","NAdj","same","0","T","stupid","Y","13"
"","4251","same-different-html","77","777062","0.0-3.0-74.0","","131-1","""careful""","""jikkurijikkuri.wav""","191","careful","RNRI","same","1","T","careful","Y","14"
"","2956","same-different-html","78","783022","0.0-3.0-75.0","","131-1","""useless""","""kukkiri.wav""","90","clear","NRI","different","1","D","useless","Y","15"
"","2998","same-different-html","79","789021","0.0-3.0-76.0","","131-1","""chubby""","""debu.wav""","90","fat","SRI","different","1","D","chubby","Y","16"
"","3091","same-different-html","80","795118","0.0-3.0-77.0","","131-1","""noisy""","""maremare.wav""","90","rare","RNAdj","different","1","D","noisy","Y","17"
"","2985","same-different-html","81","801105","0.0-3.0-78.0","","131-1","""useless""","""damedame.wav""","191","useless","RNAdj","same","1","T","useless","Y","18"
"","2658","same-different-html","82","806767","0.0-3.0-79.0","","131-1","""humid""","""mushimushi.wav""","191","humid","RI","same","1","T","humid","Y","19"
"","2986","same-different-html","83","812757","0.0-3.0-80.0","","131-1","""beneficial""","""toku.wav""","90","beneficial","NAdj","same","0","T","beneficial","Y","20"
"","3373","same-different-html","84","819133","0.0-3.0-81.0","","131-1","""excessive""","""pata.wav""","191","sudden","NRI","different","0","D","excessive","Y","21"
"","3060","same-different-html","85","825194","0.0-3.0-82.0","","131-1","""plump""","""potcharipotchari.wav""","191","plump","RNRI","same","1","T","plump","Y","22"
"","3224","same-different-html","86","831422","0.0-3.0-83.0","","131-1","""glossy""","""gaya.wav""","90","noisy","SRI","different","1","D","glossy","Y","23"
"","2636","same-different-html","87","837062","0.0-3.0-84.0","","131-1","""chatty""","""bera.wav""","191","chatty","SRI","same","1","T","chatty","Y","24"
"","2757","same-different-html","88","842821","0.0-3.0-85.0","","131-1","""plump""","""jikkurijikkuri.wav""","90","careful","RNRI","different","1","D","plump","Y","25"
"","2713","same-different-html","89","848537","0.0-3.0-86.0","","131-1","""rare""","""maremare.wav""","191","rare","RNAdj","same","1","T","rare","Y","26"
"","3080","same-different-html","90","854619","0.0-3.0-87.0","","131-1","""chatty""","""gussuri.wav""","191","fast asleep","NRI","different","0","D","chatty","Y","27"
"","2880","same-different-html","91","860503","0.0-3.0-88.0","","131-1","""careful""","""boroboro.wav""","191","worn out","RI","different","0","D","careful","Y","28"
"","2845","same-different-html","92","866351","0.0-3.0-89.0","","131-1","""fast asleep""","""gussuri.wav""","191","fast asleep","NRI","same","1","T","fast asleep","Y","29"
"","3223","same-different-html","93","872576","0.0-3.0-90.0","","131-1","""chubby""","""bukubuku.wav""","191","chubby","RI","same","1","T","chubby","Y","30"
"","2933","same-different-html","94","878511","0.0-3.0-91.0","","131-1","""sloppy""","""mukumuku.wav""","90","pure","RNAdj","different","1","D","sloppy","Y","31"
"","2933","same-different-html","95","884447","0.0-3.0-92.0","","131-1","""crowded""","""bisshiribisshiri.wav""","191","crowded","RNRI","same","1","T","crowded","Y","32"
"","2901","same-different-html","96","890350","0.0-3.0-93.0","","131-1","""harsh""","""koku.wav""","191","harsh","NAdj","same","1","T","harsh","Y","33"
"","2974","same-different-html","97","896327","0.0-3.0-94.0","","131-1","""sullen""","""musu.wav""","191","sullen","NRI","same","1","T","sullen","Y","34"
"","2945","same-different-html","98","902274","0.0-3.0-95.0","","131-1","""fat""","""debu.wav""","191","fat","SRI","same","1","T","fat","Y","35"
"","2958","same-different-html","99","908234","0.0-3.0-96.0","","131-1","""harsh""","""musu.wav""","90","sullen","NRI","different","1","D","harsh","Y","36"
"","3798","same-different-html","100","915035","0.0-3.0-97.0","","131-1","""nonchalantly""","""bera.wav""","90","chatty","SRI","different","1","D","nonchalantly","Y","37"
"","2394","same-different-html","101","920433","0.0-3.0-98.0","","131-1","""pure""","""koku.wav""","191","harsh","NAdj","different","0","D","pure","Y","38"
"","2466","same-different-html","102","925903","0.0-3.0-99.0","","131-1","""sudden""","""pata.wav""","191","sudden","NRI","same","1","T","sudden","Y","39"
"","2894","same-different-html","103","931800","0.0-3.0-100.0","","131-1","""fast asleep""","""potcharipotchari.wav""","90","plump","RNRI","different","1","D","fast asleep","Y","40"
"","3452","same-different-html","104","938256","0.0-3.0-101.0","","131-1","""fat""","""tsuyatsuya.wav""","90","glossy","RI","different","1","D","fat","Y","41"
"","2626","same-different-html","105","943883","0.0-3.0-102.0","","131-1","""clear""","""kukkiri.wav""","191","clear","NRI","same","1","T","clear","Y","42"
"","2850","same-different-html","106","949735","0.0-3.0-103.0","","131-1","""nonchalantly""","""kerokero.wav""","191","nonchalantly","RNRI","same","1","T","nonchalantly","Y","43"
"","2829","same-different-html","107","955571","0.0-3.0-104.0","","131-1","""crowded""","""toku.wav""","90","beneficial","NAdj","different","1","D","crowded","Y","44"
"","2852","same-different-html","108","961424","0.0-3.0-105.0","","131-1","""suspenseful""","""hara.wav""","191","suspenseful","SRI","same","1","T","suspenseful","Y","45"
"","2902","same-different-html","109","967328","0.0-3.0-106.0","","131-1","""sullen""","""zatsu.wav""","90","sloppy","NAdj","different","1","D","sullen","Y","46"
"","2445","same-different-html","110","972775","0.0-3.0-107.0","","131-1","""stupid""","""hara.wav""","191","suspenseful","SRI","different","0","D","stupid","Y","47"
"","3565","same-different-html","111","979346","0.0-3.0-108.0","","131-1","""sloppy""","""zatsu.wav""","191","sloppy","NAdj","same","1","T","sloppy","Y","48"
"[{""page_index"":0,""viewing_time"":16875}]","16875","instructions","112","997221","0.0-3.0-109.0","","","","","","","","","","","","",""
