"view_history","rt","trial_type","trial_index","time_elapsed","internal_node_id","responses","Id","word","sound","key_press","TrueMeaning","WordType","answer","correct","TrialType","TargetMeaning","LegalTrial","trialNum"
"[{""page_index"":0,""viewing_time"":20390}]","20393","instructions","0","20428","0.0-0.0","","","","","","","","","","","","",""
"[{""page_index"":0,""viewing_time"":2908},{""page_index"":1,""viewing_time"":6127},{""page_index"":2,""viewing_time"":5865},{""page_index"":3,""viewing_time"":16052},{""page_index"":4,""viewing_time"":62600}]","93554","instructions","1","113985","0.0-1.0","","","","","","","","","","","","",""
"","31190","survey-multi-choice","2","145215","0.0-2.0","{""Q0"":""Yes"",""Q1"":""Yes"",""Q2"":""Yes"",""Q3"":""Yes"",""Q4"":""Yes""}","","","","","","","","","","","",""
"[{""page_index"":0,""viewing_time"":2312},{""page_index"":1,""viewing_time"":7368}]","9682","instructions","3","154900","0.0-3.0-0.0","","","","","","","","","","","","",""
"","4193","same-different-html-trial","4","165152","0.0-3.0-1.0","","0","""sushi""","""prc_sushi.wav""","32","","","","","","","",""
"[{""page_index"":0,""viewing_time"":10485}]","10486","instructions","5","176640","0.0-3.0-2.0","","","","","","","","","","","","",""
"","7485","same-different-html","6","186147","0.0-3.0-3.0","","0","""sushi""","""prc_sushi.wav""","191","","","same","1","","","0",""
"[{""page_index"":0,""viewing_time"":5525}]","5526","instructions","7","192676","0.0-3.0-4.0","","","","","","","","","","","","",""
"","1994","same-different-html","8","196691","0.0-3.0-5.0","","0","""cat""","""prc_sushi.wav""","90","","","different","1","","","0",""
"[{""page_index"":0,""viewing_time"":4788},{""page_index"":1,""viewing_time"":2418}]","7208","instructions","9","204900","0.0-3.0-6.0","","","","","","","","","","","","",""
"","3149","same-different-html-trial","10","214076","0.0-3.0-7.0","","0","""thank you""","""prc_arigato.wav""","32","","","","","","","",""
"[{""page_index"":0,""viewing_time"":7063}]","7065","instructions","11","222148","0.0-3.0-8.0","","","","","","","","","","","","",""
"","2318","same-different-html","12","226480","0.0-3.0-9.0","","0","""thank you""","""prc_arigato.wav""","191","","","same","1","","","0",""
"","1567","same-different-html","13","231090","0.0-3.0-10.0","","0","""cat""","""prc_arigato.wav""","90","","","different","1","","","0",""
"[{""page_index"":0,""viewing_time"":5566},{""page_index"":1,""viewing_time"":36980}]","42548","instructions","14","274640","0.0-3.0-11.0","","","","","","","","","","","","",""
"","9180","same-different-html-trial","15","289855","0.0-3.0-12.0","","1598-4","""rash""","""mucha.wav""","32","rash","NAdj","","","","","","1"
"","4549","same-different-html-trial","16","301445","0.0-3.0-13.0","","1598-4","""noisy""","""gayagaya.wav""","32","noisy","RI","","","","","","2"
"","5482","same-different-html-trial","17","313959","0.0-3.0-14.0","","1598-4","""comfortable""","""raku.wav""","32","comfortable","NAdj","","","","","","3"
"","2362","same-different-html-trial","18","323363","0.0-3.0-15.0","","1598-4","""gaping""","""poka.wav""","32","gaping","NRI","","","","","","4"
"","2471","same-different-html-trial","19","332889","0.0-3.0-16.0","","1598-4","""careful""","""jikkuri.wav""","32","careful","NRI","","","","","","5"
"","3772","same-different-html-trial","20","343711","0.0-3.0-17.0","","1598-4","""disadvantaged""","""furi.wav""","32","disadvantaged","NAdj","","","","","","6"
"","3831","same-different-html-trial","21","354575","0.0-3.0-18.0","","1598-4","""harsh""","""kokukoku.wav""","32","harsh","RNAdj","","","","","","7"
"","2108","same-different-html-trial","22","363756","0.0-3.0-19.0","","1598-4","""dejected""","""gaku.wav""","32","dejected","NRI","","","","","","8"
"","2011","same-different-html-trial","23","372808","0.0-3.0-20.0","","1598-4","""stiff""","""gowagowa.wav""","32","stiff","RI","","","","","","9"
"","2928","same-different-html-trial","24","382780","0.0-3.0-21.0","","1598-4","""smooth""","""nopperi.wav""","32","smooth","NRI","","","","","","10"
"","1842","same-different-html-trial","25","391671","0.0-3.0-22.0","","1598-4","""subdued""","""jimijimi.wav""","32","subdued","RNAdj","","","","","","11"
"","2928","same-different-html-trial","26","401631","0.0-3.0-23.0","","1598-4","""perfect""","""batchiribatchiri.wav""","32","perfect","RNRI","","","","","","12"
"","2007","same-different-html-trial","27","410689","0.0-3.0-24.0","","1598-4","""happy""","""uki.wav""","32","happy","SRI","","","","","","13"
"","1555","same-different-html-trial","28","419278","0.0-3.0-25.0","","1598-4","""sullen""","""musumusu.wav""","32","sullen","RNRI","","","","","","14"
"","2119","same-different-html-trial","29","428444","0.0-3.0-26.0","","1598-4","""plump""","""potcharipotchari.wav""","32","plump","RNRI","","","","","","15"
"","8092","same-different-html-trial","30","443570","0.0-3.0-27.0","","1598-4","""chubby""","""bukubuku.wav""","32","chubby","RI","","","","","","16"
"","1676","same-different-html-trial","31","452363","0.0-3.0-28.0","","1598-4","""fragile""","""yawa.wav""","32","fragile","NAdj","","","","","","17"
"","1697","same-different-html-trial","32","461101","0.0-3.0-29.0","","1598-4","""hesitant""","""mojimoji.wav""","32","hesitant","RI","","","","","","18"
"","1666","same-different-html-trial","33","469801","0.0-3.0-30.0","","1598-4","""rude""","""zuke.wav""","32","rude","SRI","","","","","","19"
"","4717","same-different-html-trial","34","481553","0.0-3.0-31.0","","1598-4","""decisive""","""pishapisha.wav""","32","decisive","RNRI","","","","","","20"
"","1647","same-different-html-trial","35","490262","0.0-3.0-32.0","","1598-4","""useless""","""damedame.wav""","32","useless","RNAdj","","","","","","21"
"","1617","same-different-html-trial","36","498916","0.0-3.0-33.0","","1598-4","""stupid""","""bakabaka.wav""","32","stupid","RNAdj","","","","","","22"
"","5304","same-different-html-trial","37","511258","0.0-3.0-34.0","","1598-4","""hasty""","""seka.wav""","32","hasty","SRI","","","","","","23"
"","3840","same-different-html-trial","38","522150","0.0-3.0-35.0","","1598-4","""agitated""","""hiku.wav""","32","agitated","SRI","","","","","","24"
"","1684","same-different-html-trial","39","530862","0.0-3.0-36.0","","1598-4","""stupid""","""bakabaka.wav""","32","stupid","RNAdj","","","","","","25"
"","5079","same-different-html-trial","40","542971","0.0-3.0-37.0","","1598-4","""happy""","""uki.wav""","32","happy","SRI","","","","","","26"
"","1919","same-different-html-trial","41","551941","0.0-3.0-38.0","","1598-4","""careful""","""jikkuri.wav""","32","careful","NRI","","","","","","27"
"","3450","same-different-html-trial","42","562431","0.0-3.0-39.0","","1598-4","""plump""","""potcharipotchari.wav""","32","plump","RNRI","","","","","","28"
"","2079","same-different-html-trial","43","571540","0.0-3.0-40.0","","1598-4","""hasty""","""seka.wav""","32","hasty","SRI","","","","","","29"
"","1952","same-different-html-trial","44","580559","0.0-3.0-41.0","","1598-4","""decisive""","""pishapisha.wav""","32","decisive","RNRI","","","","","","30"
"","1764","same-different-html-trial","45","589406","0.0-3.0-42.0","","1598-4","""harsh""","""kokukoku.wav""","32","harsh","RNAdj","","","","","","31"
"","2946","same-different-html-trial","46","599400","0.0-3.0-43.0","","1598-4","""disadvantaged""","""furi.wav""","32","disadvantaged","NAdj","","","","","","32"
"","2051","same-different-html-trial","47","608482","0.0-3.0-44.0","","1598-4","""dejected""","""gaku.wav""","32","dejected","NRI","","","","","","33"
"","10580","same-different-html-trial","48","626096","0.0-3.0-45.0","","1598-4","""agitated""","""hiku.wav""","32","agitated","SRI","","","","","","34"
"","10335","same-different-html-trial","49","643482","0.0-3.0-46.0","","1598-4","""rude""","""zuke.wav""","32","rude","SRI","","","","","","35"
"","1989","same-different-html-trial","50","652501","0.0-3.0-47.0","","1598-4","""comfortable""","""raku.wav""","32","comfortable","NAdj","","","","","","36"
"","4023","same-different-html-trial","51","663553","0.0-3.0-48.0","","1598-4","""smooth""","""nopperi.wav""","32","smooth","NRI","","","","","","37"
"","3686","same-different-html-trial","52","674313","0.0-3.0-49.0","","1598-4","""sullen""","""musumusu.wav""","32","sullen","RNRI","","","","","","38"
"","3178","same-different-html-trial","53","684520","0.0-3.0-50.0","","1598-4","""useless""","""damedame.wav""","32","useless","RNAdj","","","","","","39"
"","7001","same-different-html-trial","54","698597","0.0-3.0-51.0","","1598-4","""stiff""","""gowagowa.wav""","32","stiff","RI","","","","","","40"
"","1664","same-different-html-trial","55","707304","0.0-3.0-52.0","","1598-4","""rash""","""mucha.wav""","32","rash","NAdj","","","","","","41"
"","1488","same-different-html-trial","56","715823","0.0-3.0-53.0","","1598-4","""gaping""","""poka.wav""","32","gaping","NRI","","","","","","42"
"","2465","same-different-html-trial","57","725336","0.0-3.0-54.0","","1598-4","""hesitant""","""mojimoji.wav""","32","hesitant","RI","","","","","","43"
"","5163","same-different-html-trial","58","737532","0.0-3.0-55.0","","1598-4","""chubby""","""bukubuku.wav""","32","chubby","RI","","","","","","44"
"","2861","same-different-html-trial","59","747454","0.0-3.0-56.0","","1598-4","""perfect""","""batchiribatchiri.wav""","32","perfect","RNRI","","","","","","45"
"","2925","same-different-html-trial","60","757423","0.0-3.0-57.0","","1598-4","""fragile""","""yawa.wav""","32","fragile","NAdj","","","","","","46"
"","5938","same-different-html-trial","61","770389","0.0-3.0-58.0","","1598-4","""noisy""","""gayagaya.wav""","32","noisy","RI","","","","","","47"
"","2296","same-different-html-trial","62","779738","0.0-3.0-59.0","","1598-4","""subdued""","""jimijimi.wav""","32","subdued","RNAdj","","","","","","48"
"[{""page_index"":0,""viewing_time"":30358}]","30361","instructions","63","811108","0.0-3.0-60.0","","","","","","","","","","","","",""
"","11477","same-different-html","64","824601","0.0-3.0-61.0","","1598-4","""perfect""","""yawa.wav""","90","fragile","NAdj","different","1","D","perfect","Y","1"
"","2666","same-different-html","65","830305","0.0-3.0-62.0","","1598-4","""fragile""","""jimijimi.wav""","90","subdued","RNAdj","different","1","D","fragile","Y","2"
"","5471","same-different-html","66","838796","0.0-3.0-63.0","","1598-4","""gaping""","""furi.wav""","90","disadvantaged","NAdj","different","1","D","gaping","Y","3"
"","3190","same-different-html","67","845003","0.0-3.0-64.0","","1598-4","""plump""","""raku.wav""","90","comfortable","NAdj","different","1","D","plump","Y","4"
"","1997","same-different-html","68","850017","0.0-3.0-65.0","","1598-4","""rash""","""musumusu.wav""","191","sullen","RNRI","different","0","D","rash","Y","5"
"","10768","same-different-html","69","863806","0.0-3.0-66.0","","1598-4","""sullen""","""gaku.wav""","90","dejected","NRI","different","1","D","sullen","Y","6"
"","6209","same-different-html","70","873032","0.0-3.0-67.0","","1598-4","""stupid""","""seka.wav""","191","hasty","SRI","different","0","D","stupid","Y","7"
"","3508","same-different-html","71","879558","0.0-3.0-68.0","","1598-4","""chubby""","""kokukoku.wav""","90","harsh","RNAdj","different","1","D","chubby","Y","8"
"","1809","same-different-html","72","884419","0.0-3.0-69.0","","1598-4","""useless""","""damedame.wav""","191","useless","RNAdj","same","1","T","useless","Y","9"
"","3481","same-different-html","73","890919","0.0-3.0-70.0","","1598-4","""stiff""","""gowagowa.wav""","191","stiff","RI","same","1","T","stiff","Y","10"
"","1887","same-different-html","74","895827","0.0-3.0-71.0","","1598-4","""subdued""","""bakabaka.wav""","90","stupid","RNAdj","different","1","D","subdued","Y","11"
"","4053","same-different-html","75","902899","0.0-3.0-72.0","","1598-4","""noisy""","""gayagaya.wav""","191","noisy","RI","same","1","T","noisy","Y","12"
"","3074","same-different-html","76","908989","0.0-3.0-73.0","","1598-4","""fragile""","""yawa.wav""","191","fragile","NAdj","same","1","T","fragile","Y","13"
"","3541","same-different-html","77","915550","0.0-3.0-74.0","","1598-4","""smooth""","""zuke.wav""","90","rude","SRI","different","1","D","smooth","Y","14"
"","4168","same-different-html","78","922757","0.0-3.0-75.0","","1598-4","""perfect""","""batchiribatchiri.wav""","191","perfect","RNRI","same","1","T","perfect","Y","15"
"","2290","same-different-html","79","928070","0.0-3.0-76.0","","1598-4","""comfortable""","""raku.wav""","191","comfortable","NAdj","same","1","T","comfortable","Y","16"
"","4417","same-different-html","80","935507","0.0-3.0-77.0","","1598-4","""hesitant""","""mojimoji.wav""","90","hesitant","RI","same","0","T","hesitant","Y","17"
"","2310","same-different-html","81","940858","0.0-3.0-78.0","","1598-4","""disadvantaged""","""pishapisha.wav""","90","decisive","RNRI","different","1","D","disadvantaged","Y","18"
"","5169","same-different-html","82","949048","0.0-3.0-79.0","","1598-4","""hasty""","""jikkuri.wav""","191","careful","NRI","different","0","D","hasty","Y","19"
"","6309","same-different-html","83","958374","0.0-3.0-80.0","","1598-4","""careful""","""poka.wav""","90","gaping","NRI","different","1","D","careful","Y","20"
"","3812","same-different-html","84","965212","0.0-3.0-81.0","","1598-4","""careful""","""jikkuri.wav""","191","careful","NRI","same","1","T","careful","Y","21"
"","2246","same-different-html","85","970478","0.0-3.0-82.0","","1598-4","""chubby""","""bukubuku.wav""","191","chubby","RI","same","1","T","chubby","Y","22"
"","2801","same-different-html","86","976301","0.0-3.0-83.0","","1598-4","""plump""","""potcharipotchari.wav""","191","plump","RNRI","same","1","T","plump","Y","23"
"","2050","same-different-html","87","981369","0.0-3.0-84.0","","1598-4","""noisy""","""mojimoji.wav""","90","hesitant","RI","different","1","D","noisy","Y","24"
"","4135","same-different-html","88","988546","0.0-3.0-85.0","","1598-4","""harsh""","""hiku.wav""","191","agitated","SRI","different","0","D","harsh","Y","25"
"","3876","same-different-html","89","995470","0.0-3.0-86.0","","1598-4","""rash""","""mucha.wav""","191","rash","NAdj","same","1","T","rash","Y","26"
"","4440","same-different-html","90","1002929","0.0-3.0-87.0","","1598-4","""agitated""","""nopperi.wav""","90","smooth","NRI","different","1","D","agitated","Y","27"
"","2706","same-different-html","91","1008651","0.0-3.0-88.0","","1598-4","""happy""","""uki.wav""","191","happy","SRI","same","1","T","happy","Y","28"
"","1651","same-different-html","92","1013321","0.0-3.0-89.0","","1598-4","""comfortable""","""gayagaya.wav""","90","noisy","RI","different","1","D","comfortable","Y","29"
"","1829","same-different-html","93","1018177","0.0-3.0-90.0","","1598-4","""disadvantaged""","""furi.wav""","191","disadvantaged","NAdj","same","1","T","disadvantaged","Y","30"
"","7355","same-different-html","94","1028550","0.0-3.0-91.0","","1598-4","""stiff""","""damedame.wav""","90","useless","RNAdj","different","1","D","stiff","Y","31"
"","3051","same-different-html","95","1034674","0.0-3.0-92.0","","1598-4","""smooth""","""nopperi.wav""","191","smooth","NRI","same","1","T","smooth","Y","32"
"","2844","same-different-html","96","1040549","0.0-3.0-93.0","","1598-4","""agitated""","""hiku.wav""","191","agitated","SRI","same","1","T","agitated","Y","33"
"","3424","same-different-html","97","1047007","0.0-3.0-94.0","","1598-4","""harsh""","""kokukoku.wav""","191","harsh","RNAdj","same","1","T","harsh","Y","34"
"","2064","same-different-html","98","1052088","0.0-3.0-95.0","","1598-4","""stupid""","""bakabaka.wav""","191","stupid","RNAdj","same","1","T","stupid","Y","35"
"","3370","same-different-html","99","1058471","0.0-3.0-96.0","","1598-4","""rude""","""zuke.wav""","191","rude","SRI","same","1","T","rude","Y","36"
"","3496","same-different-html","100","1064992","0.0-3.0-97.0","","1598-4","""dejected""","""mucha.wav""","90","rash","NAdj","different","1","D","dejected","Y","37"
"","2430","same-different-html","101","1070439","0.0-3.0-98.0","","1598-4","""decisive""","""pishapisha.wav""","191","decisive","RNRI","same","1","T","decisive","Y","38"
"","2819","same-different-html","102","1076278","0.0-3.0-99.0","","1598-4","""gaping""","""poka.wav""","191","gaping","NRI","same","1","T","gaping","Y","39"
"","2646","same-different-html","103","1081967","0.0-3.0-100.0","","1598-4","""dejected""","""gaku.wav""","90","dejected","NRI","same","0","T","dejected","Y","40"
"","5137","same-different-html","104","1090124","0.0-3.0-101.0","","1598-4","""happy""","""gowagowa.wav""","90","stiff","RI","different","1","D","happy","Y","41"
"","3180","same-different-html","105","1096321","0.0-3.0-102.0","","1598-4","""decisive""","""potcharipotchari.wav""","90","plump","RNRI","different","1","D","decisive","Y","42"
"","2058","same-different-html","106","1101416","0.0-3.0-103.0","","1598-4","""rude""","""bukubuku.wav""","90","chubby","RI","different","1","D","rude","Y","43"
"","3234","same-different-html","107","1107668","0.0-3.0-104.0","","1598-4","""useless""","""uki.wav""","90","happy","SRI","different","1","D","useless","Y","44"
"","7525","same-different-html","108","1118218","0.0-3.0-105.0","","1598-4","""hesitant""","""batchiribatchiri.wav""","90","perfect","RNRI","different","1","D","hesitant","Y","45"
"","2679","same-different-html","109","1123919","0.0-3.0-106.0","","1598-4","""hasty""","""seka.wav""","90","hasty","SRI","same","0","T","hasty","Y","46"
"","1811","same-different-html","110","1128745","0.0-3.0-107.0","","1598-4","""subdued""","""jimijimi.wav""","191","subdued","RNAdj","same","1","T","subdued","Y","47"
"","2759","same-different-html","111","1134518","0.0-3.0-108.0","","1598-4","""sullen""","""musumusu.wav""","191","sullen","RNRI","same","1","T","sullen","Y","48"
"[{""page_index"":0,""viewing_time"":31335}]","31337","instructions","112","1166858","0.0-3.0-109.0","","","","","","","","","","","","",""
