"view_history","rt","trial_type","trial_index","time_elapsed","internal_node_id","responses","Id","word","sound","key_press","TrueMeaning","WordType","answer","correct","TrialType","TargetMeaning","LegalTrial","trialNum"
"[{""page_index"":0,""viewing_time"":10815}]","10816","instructions","0","10819","0.0-0.0","","","","","","","","","","","","",""
"[{""page_index"":0,""viewing_time"":1747},{""page_index"":1,""viewing_time"":3399},{""page_index"":2,""viewing_time"":4774},{""page_index"":3,""viewing_time"":8461},{""page_index"":4,""viewing_time"":38681}]","57062","instructions","1","67882","0.0-1.0","","","","","","","","","","","","",""
"","14499","survey-multi-choice","2","82387","0.0-2.0","{""Q0"":""Yes"",""Q1"":""Yes"",""Q2"":""Yes"",""Q3"":""Yes"",""Q4"":""Yes""}","","","","","","","","","","","",""
"[{""page_index"":0,""viewing_time"":1707},{""page_index"":1,""viewing_time"":5206}]","6913","instructions","3","89300","0.0-3.0-0.0","","","","","","","","","","","","",""
"","3905","same-different-html-trial","4","99218","0.0-3.0-1.0","","0","""sushi""","""prc_sushi.wav""","32","","","","","","","",""
"[{""page_index"":0,""viewing_time"":3194}]","3194","instructions","5","103412","0.0-3.0-2.0","","","","","","","","","","","","",""
"","14954","same-different-html","6","120369","0.0-3.0-3.0","","0","""sushi""","""prc_sushi.wav""","90","","","same","0","","","0",""
"[{""page_index"":0,""viewing_time"":5090}]","5090","instructions","7","126460","0.0-3.0-4.0","","","","","","","","","","","","",""
"","3399","same-different-html","8","131864","0.0-3.0-5.0","","0","""cat""","""prc_sushi.wav""","191","","","different","0","","","0",""
"[{""page_index"":0,""viewing_time"":4336},{""page_index"":1,""viewing_time"":1748}]","6085","instructions","9","138949","0.0-3.0-6.0","","","","","","","","","","","","",""
"","2450","same-different-html-trial","10","147406","0.0-3.0-7.0","","0","""thank you""","""prc_arigato.wav""","32","","","","","","","",""
"[{""page_index"":0,""viewing_time"":3686}]","3686","instructions","11","152093","0.0-3.0-8.0","","","","","","","","","","","","",""
"","4497","same-different-html","12","158592","0.0-3.0-9.0","","0","""thank you""","""prc_arigato.wav""","191","","","same","1","","","0",""
"","2381","same-different-html","13","163979","0.0-3.0-10.0","","0","""cat""","""prc_arigato.wav""","90","","","different","1","","","0",""
"[{""page_index"":0,""viewing_time"":3064},{""page_index"":1,""viewing_time"":17640}]","20704","instructions","14","185685","0.0-3.0-11.0","","","","","","","","","","","","",""
"","4532","same-different-html-trial","15","196224","0.0-3.0-12.0","","9982-6","""pure""","""muku.wav""","32","pure","NAdj","","","","","","1"
"","4246","same-different-html-trial","16","207479","0.0-3.0-13.0","","9982-6","""nonchalantly""","""kero.wav""","32","nonchalantly","NRI","","","","","","2"
"","1834","same-different-html-trial","17","216322","0.0-3.0-14.0","","9982-6","""rash""","""muchamucha.wav""","32","rash","RNAdj","","","","","","3"
"","2539","same-different-html-trial","18","225870","0.0-3.0-15.0","","9982-6","""whole""","""gosogoso.wav""","32","whole","RNRI","","","","","","4"
"","2460","same-different-html-trial","19","235340","0.0-3.0-16.0","","9982-6","""excessive""","""kadokado.wav""","32","excessive","RNAdj","","","","","","5"
"","2145","same-different-html-trial","20","244493","0.0-3.0-17.0","","9982-6","""subdued""","""jimi.wav""","32","subdued","NAdj","","","","","","6"
"","1622","same-different-html-trial","21","253126","0.0-3.0-18.0","","9982-6","""decisive""","""pisha.wav""","32","decisive","NRI","","","","","","7"
"","1802","same-different-html-trial","22","261937","0.0-3.0-19.0","","9982-6","""glossy""","""tsuyatsuya.wav""","32","glossy","RI","","","","","","8"
"","2093","same-different-html-trial","23","271037","0.0-3.0-20.0","","9982-6","""dejected""","""gaku.wav""","32","dejected","NRI","","","","","","9"
"","6318","same-different-html-trial","24","284363","0.0-3.0-21.0","","9982-6","""fragile""","""yawayawa.wav""","32","fragile","RNAdj","","","","","","10"
"","3190","same-different-html-trial","25","294560","0.0-3.0-22.0","","9982-6","""perfect""","""batchiribatchiri.wav""","32","perfect","RNRI","","","","","","11"
"","1690","same-different-html-trial","26","303260","0.0-3.0-23.0","","9982-6","""sloppy""","""zatsu.wav""","32","sloppy","NAdj","","","","","","12"
"","1725","same-different-html-trial","27","311995","0.0-3.0-24.0","","9982-6","""rude""","""zuke.wav""","32","rude","SRI","","","","","","13"
"","2157","same-different-html-trial","28","321159","0.0-3.0-25.0","","9982-6","""humid""","""mushi.wav""","32","humid","SRI","","","","","","14"
"","3194","same-different-html-trial","29","331357","0.0-3.0-26.0","","9982-6","""careful""","""jikkuri.wav""","32","careful","NRI","","","","","","15"
"","20978","same-different-html-trial","30","359345","0.0-3.0-27.0","","9982-6","""clear""","""kukkirikukkiri.wav""","32","clear","RNRI","","","","","","16"
"","11452","same-different-html-trial","31","377808","0.0-3.0-28.0","","9982-6","""noisy""","""gayagaya.wav""","32","noisy","RI","","","","","","17"
"","6766","same-different-html-trial","32","391580","0.0-3.0-29.0","","9982-6","""worn out""","""boro.wav""","32","worn out","SRI","","","","","","18"
"","9770","same-different-html-trial","33","408360","0.0-3.0-30.0","","9982-6","""supple""","""shinnarishinnari.wav""","32","supple","RNRI","","","","","","19"
"","1341","same-different-html-trial","34","416711","0.0-3.0-31.0","","9982-6","""stupid""","""bakabaka.wav""","32","stupid","RNAdj","","","","","","20"
"","8061","same-different-html-trial","35","431781","0.0-3.0-32.0","","9982-6","""agitated""","""hikuhiku.wav""","32","agitated","RI","","","","","","21"
"","7332","same-different-html-trial","36","446123","0.0-3.0-33.0","","9982-6","""chatty""","""berabera.wav""","32","chatty","RI","","","","","","22"
"","7454","same-different-html-trial","37","460585","0.0-3.0-34.0","","9982-6","""chubby""","""buku.wav""","32","chubby","SRI","","","","","","23"
"","6342","same-different-html-trial","38","473940","0.0-3.0-35.0","","9982-6","""disadvantaged""","""furi.wav""","32","disadvantaged","NAdj","","","","","","24"
"","4487","same-different-html-trial","39","485434","0.0-3.0-36.0","","9982-6","""perfect""","""batchiribatchiri.wav""","32","perfect","RNRI","","","","","","25"
"","2629","same-different-html-trial","40","495073","0.0-3.0-37.0","","9982-6","""noisy""","""gayagaya.wav""","32","noisy","RI","","","","","","26"
"","10224","same-different-html-trial","41","512307","0.0-3.0-38.0","","9982-6","""whole""","""gosogoso.wav""","32","whole","RNRI","","","","","","27"
"","11690","same-different-html-trial","42","531009","0.0-3.0-39.0","","9982-6","""decisive""","""pisha.wav""","32","decisive","NRI","","","","","","28"
"","5921","same-different-html-trial","43","543945","0.0-3.0-40.0","","9982-6","""sloppy""","""zatsu.wav""","32","sloppy","NAdj","","","","","","29"
"","5010","same-different-html-trial","44","555965","0.0-3.0-41.0","","9982-6","""dejected""","""gaku.wav""","32","dejected","NRI","","","","","","30"
"","2055","same-different-html-trial","45","565030","0.0-3.0-42.0","","9982-6","""worn out""","""boro.wav""","32","worn out","SRI","","","","","","31"
"","5869","same-different-html-trial","46","577909","0.0-3.0-43.0","","9982-6","""humid""","""mushi.wav""","32","humid","SRI","","","","","","32"
"","6835","same-different-html-trial","47","591754","0.0-3.0-44.0","","9982-6","""subdued""","""jimi.wav""","32","subdued","NAdj","","","","","","33"
"","4093","same-different-html-trial","48","602855","0.0-3.0-45.0","","9982-6","""rude""","""zuke.wav""","32","rude","SRI","","","","","","34"
"","8099","same-different-html-trial","49","617961","0.0-3.0-46.0","","9982-6","""careful""","""jikkuri.wav""","32","careful","NRI","","","","","","35"
"","8744","same-different-html-trial","50","633717","0.0-3.0-47.0","","9982-6","""fragile""","""yawayawa.wav""","32","fragile","RNAdj","","","","","","36"
"","3106","same-different-html-trial","51","643831","0.0-3.0-48.0","","9982-6","""disadvantaged""","""furi.wav""","32","disadvantaged","NAdj","","","","","","37"
"","4910","same-different-html-trial","52","655749","0.0-3.0-49.0","","9982-6","""chatty""","""berabera.wav""","32","chatty","RI","","","","","","38"
"","5778","same-different-html-trial","53","668534","0.0-3.0-50.0","","9982-6","""pure""","""muku.wav""","32","pure","NAdj","","","","","","39"
"","5025","same-different-html-trial","54","680567","0.0-3.0-51.0","","9982-6","""nonchalantly""","""kero.wav""","32","nonchalantly","NRI","","","","","","40"
"","4242","same-different-html-trial","55","691817","0.0-3.0-52.0","","9982-6","""stupid""","""bakabaka.wav""","32","stupid","RNAdj","","","","","","41"
"","2277","same-different-html-trial","56","701105","0.0-3.0-53.0","","9982-6","""clear""","""kukkirikukkiri.wav""","32","clear","RNRI","","","","","","42"
"","1716","same-different-html-trial","57","709829","0.0-3.0-54.0","","9982-6","""supple""","""shinnarishinnari.wav""","32","supple","RNRI","","","","","","43"
"","12823","same-different-html-trial","58","729659","0.0-3.0-55.0","","9982-6","""excessive""","""kadokado.wav""","32","excessive","RNAdj","","","","","","44"
"","19438","same-different-html-trial","59","756106","0.0-3.0-56.0","","9982-6","""agitated""","""hikuhiku.wav""","32","agitated","RI","","","","","","45"
"","1128","same-different-html-trial","60","764241","0.0-3.0-57.0","","9982-6","""chubby""","""buku.wav""","32","chubby","SRI","","","","","","46"
"","16697","same-different-html-trial","61","787946","0.0-3.0-58.0","","9982-6","""glossy""","""tsuyatsuya.wav""","32","glossy","RI","","","","","","47"
"","9789","same-different-html-trial","62","804742","0.0-3.0-59.0","","9982-6","""rash""","""muchamucha.wav""","32","rash","RNAdj","","","","","","48"
"[{""page_index"":0,""viewing_time"":21771}]","21771","instructions","63","827514","0.0-3.0-60.0","","","","","","","","","","","","",""
"","2967","same-different-html","64","832483","0.0-3.0-61.0","","9982-6","""worn out""","""boro.wav""","191","worn out","SRI","same","1","T","worn out","Y","1"
"","2434","same-different-html","65","837922","0.0-3.0-62.0","","9982-6","""sloppy""","""gaku.wav""","90","dejected","NRI","different","1","D","sloppy","Y","2"
"","2276","same-different-html","66","843204","0.0-3.0-63.0","","9982-6","""rash""","""muchamucha.wav""","191","rash","RNAdj","same","1","T","rash","Y","3"
"","1719","same-different-html","67","847927","0.0-3.0-64.0","","9982-6","""clear""","""berabera.wav""","90","chatty","RI","different","1","D","clear","Y","4"
"","1731","same-different-html","68","852666","0.0-3.0-65.0","","9982-6","""whole""","""gosogoso.wav""","191","whole","RNRI","same","1","T","whole","Y","5"
"","2100","same-different-html","69","857773","0.0-3.0-66.0","","9982-6","""dejected""","""pisha.wav""","90","decisive","NRI","different","1","D","dejected","Y","6"
"","3299","same-different-html","70","864076","0.0-3.0-67.0","","9982-6","""agitated""","""zatsu.wav""","191","sloppy","NAdj","different","0","D","agitated","Y","7"
"","1071","same-different-html","71","868153","0.0-3.0-68.0","","9982-6","""nonchalantly""","""kero.wav""","191","nonchalantly","NRI","same","1","T","nonchalantly","Y","8"
"","1395","same-different-html","72","872554","0.0-3.0-69.0","","9982-6","""careful""","""jikkuri.wav""","191","careful","NRI","same","1","T","careful","Y","9"
"","1372","same-different-html","73","876932","0.0-3.0-70.0","","9982-6","""stupid""","""kadokado.wav""","90","excessive","RNAdj","different","1","D","stupid","Y","10"
"","2348","same-different-html","74","882286","0.0-3.0-71.0","","9982-6","""rude""","""batchiribatchiri.wav""","90","perfect","RNRI","different","1","D","rude","Y","11"
"","1110","same-different-html","75","886399","0.0-3.0-72.0","","9982-6","""chubby""","""buku.wav""","191","chubby","SRI","same","1","T","chubby","Y","12"
"","1816","same-different-html","76","891218","0.0-3.0-73.0","","9982-6","""whole""","""tsuyatsuya.wav""","90","glossy","RI","different","1","D","whole","Y","13"
"","2143","same-different-html","77","896366","0.0-3.0-74.0","","9982-6","""noisy""","""yawayawa.wav""","90","fragile","RNAdj","different","1","D","noisy","Y","14"
"","3218","same-different-html","78","902589","0.0-3.0-75.0","","9982-6","""rude""","""zuke.wav""","191","rude","SRI","same","1","T","rude","Y","15"
"","1631","same-different-html","79","907225","0.0-3.0-76.0","","9982-6","""humid""","""muku.wav""","90","pure","NAdj","different","1","D","humid","Y","16"
"","2691","same-different-html","80","912923","0.0-3.0-77.0","","9982-6","""sloppy""","""zatsu.wav""","191","sloppy","NAdj","same","1","T","sloppy","Y","17"
"","1176","same-different-html","81","917104","0.0-3.0-78.0","","9982-6","""fragile""","""yawayawa.wav""","191","fragile","RNAdj","same","1","T","fragile","Y","18"
"","1353","same-different-html","82","921463","0.0-3.0-79.0","","9982-6","""pure""","""muku.wav""","191","pure","NAdj","same","1","T","pure","Y","19"
"","2485","same-different-html","83","926952","0.0-3.0-80.0","","9982-6","""noisy""","""gayagaya.wav""","90","noisy","RI","same","0","T","noisy","Y","20"
"","3095","same-different-html","84","933054","0.0-3.0-81.0","","9982-6","""humid""","""mushi.wav""","191","humid","SRI","same","1","T","humid","Y","21"
"","2093","same-different-html","85","938152","0.0-3.0-82.0","","9982-6","""perfect""","""batchiribatchiri.wav""","191","perfect","RNRI","same","1","T","perfect","Y","22"
"","1183","same-different-html","86","942339","0.0-3.0-83.0","","9982-6","""clear""","""kukkirikukkiri.wav""","191","clear","RNRI","same","1","T","clear","Y","23"
"","2103","same-different-html","87","947448","0.0-3.0-84.0","","9982-6","""excessive""","""zuke.wav""","90","rude","SRI","different","1","D","excessive","Y","24"
"","1320","same-different-html","88","951773","0.0-3.0-85.0","","9982-6","""dejected""","""gaku.wav""","191","dejected","NRI","same","1","T","dejected","Y","25"
"","2127","same-different-html","89","956906","0.0-3.0-86.0","","9982-6","""supple""","""gosogoso.wav""","191","whole","RNRI","different","0","D","supple","Y","26"
"","1389","same-different-html","90","961304","0.0-3.0-87.0","","9982-6","""chubby""","""jimi.wav""","90","subdued","NAdj","different","1","D","chubby","Y","27"
"","1279","same-different-html","91","965588","0.0-3.0-88.0","","9982-6","""glossy""","""tsuyatsuya.wav""","191","glossy","RI","same","1","T","glossy","Y","28"
"","2038","same-different-html","92","970631","0.0-3.0-89.0","","9982-6","""disadvantaged""","""furi.wav""","90","disadvantaged","NAdj","same","0","T","disadvantaged","Y","29"
"","1274","same-different-html","93","974909","0.0-3.0-90.0","","9982-6","""subdued""","""jimi.wav""","191","subdued","NAdj","same","1","T","subdued","Y","30"
"","2005","same-different-html","94","979917","0.0-3.0-91.0","","9982-6","""worn out""","""gayagaya.wav""","90","noisy","RI","different","1","D","worn out","Y","31"
"","1724","same-different-html","95","984645","0.0-3.0-92.0","","9982-6","""rash""","""shinnarishinnari.wav""","90","supple","RNRI","different","1","D","rash","Y","32"
"","3893","same-different-html","96","991543","0.0-3.0-93.0","","9982-6","""excessive""","""kadokado.wav""","191","excessive","RNAdj","same","1","T","excessive","Y","33"
"","1578","same-different-html","97","996124","0.0-3.0-94.0","","9982-6","""nonchalantly""","""jikkuri.wav""","90","careful","NRI","different","1","D","nonchalantly","Y","34"
"","1629","same-different-html","98","1000759","0.0-3.0-95.0","","9982-6","""careful""","""bakabaka.wav""","90","stupid","RNAdj","different","1","D","careful","Y","35"
"","1354","same-different-html","99","1005121","0.0-3.0-96.0","","9982-6","""decisive""","""buku.wav""","90","chubby","SRI","different","1","D","decisive","Y","36"
"","1056","same-different-html","100","1009180","0.0-3.0-97.0","","9982-6","""decisive""","""pisha.wav""","191","decisive","NRI","same","1","T","decisive","Y","37"
"","2466","same-different-html","101","1014650","0.0-3.0-98.0","","9982-6","""supple""","""shinnarishinnari.wav""","90","supple","RNRI","same","0","T","supple","Y","38"
"","1281","same-different-html","102","1018934","0.0-3.0-99.0","","9982-6","""fragile""","""boro.wav""","90","worn out","SRI","different","1","D","fragile","Y","39"
"","2273","same-different-html","103","1024212","0.0-3.0-100.0","","9982-6","""disadvantaged""","""muchamucha.wav""","90","rash","RNAdj","different","1","D","disadvantaged","Y","40"
"","1253","same-different-html","104","1028470","0.0-3.0-101.0","","9982-6","""stupid""","""bakabaka.wav""","191","stupid","RNAdj","same","1","T","stupid","Y","41"
"","2106","same-different-html","105","1033580","0.0-3.0-102.0","","9982-6","""agitated""","""hikuhiku.wav""","90","agitated","RI","same","0","T","agitated","Y","42"
"","2109","same-different-html","106","1038693","0.0-3.0-103.0","","9982-6","""chatty""","""kero.wav""","90","nonchalantly","NRI","different","1","D","chatty","Y","43"
"","1312","same-different-html","107","1043011","0.0-3.0-104.0","","9982-6","""glossy""","""hikuhiku.wav""","90","agitated","RI","different","1","D","glossy","Y","44"
"","1681","same-different-html","108","1047695","0.0-3.0-105.0","","9982-6","""pure""","""mushi.wav""","90","humid","SRI","different","1","D","pure","Y","45"
"","2933","same-different-html","109","1053632","0.0-3.0-106.0","","9982-6","""subdued""","""kukkirikukkiri.wav""","90","clear","RNRI","different","1","D","subdued","Y","46"
"","1957","same-different-html","110","1058597","0.0-3.0-107.0","","9982-6","""chatty""","""berabera.wav""","191","chatty","RI","same","1","T","chatty","Y","47"
"","1442","same-different-html","111","1063044","0.0-3.0-108.0","","9982-6","""perfect""","""furi.wav""","90","disadvantaged","NAdj","different","1","D","perfect","Y","48"
"[{""page_index"":0,""viewing_time"":34227}]","34227","instructions","112","1098272","0.0-3.0-109.0","","","","","","","","","","","","",""
