"view_history","rt","trial_type","trial_index","time_elapsed","internal_node_id","responses","Id","word","sound","key_press","TrueMeaning","WordType","answer","correct","TrialType","TargetMeaning","LegalTrial","trialNum"
"[{""page_index"":0,""viewing_time"":644125}]","644126","instructions","0","644129","0.0-0.0","","","","","","","","","","","","",""
"[{""page_index"":0,""viewing_time"":756},{""page_index"":1,""viewing_time"":808},{""page_index"":2,""viewing_time"":1231},{""page_index"":3,""viewing_time"":16849},{""page_index"":4,""viewing_time"":1991}]","21635","instructions","1","665766","0.0-1.0","","","","","","","","","","","","",""
"","39404","survey-multi-choice","2","705177","0.0-2.0","{""Q0"":""Yes"",""Q1"":""Yes"",""Q2"":""Yes"",""Q3"":""Yes"",""Q4"":""Yes""}","","","","","","","","","","","",""
"[{""page_index"":0,""viewing_time"":2220},{""page_index"":1,""viewing_time"":975}]","3195","instructions","3","708373","0.0-3.0-0.0","","","","","","","","","","","","",""
"","141664","same-different-html-trial","4","858949","0.0-3.0-1.0","","0","""sushi""","""prc_sushi.wav""","32","","","","","","","",""
"[{""page_index"":0,""viewing_time"":1738}]","1738","instructions","5","861689","0.0-3.0-2.0","","","","","","","","","","","","",""
"","4032","same-different-html","6","867734","0.0-3.0-3.0","","0","""sushi""","""prc_sushi.wav""","90","","","same","0","","","0",""
"[{""page_index"":0,""viewing_time"":2958}]","2958","instructions","7","871694","0.0-3.0-4.0","","","","","","","","","","","","",""
"","3710","same-different-html","8","877409","0.0-3.0-5.0","","0","""cat""","""prc_sushi.wav""","90","","","different","1","","","0",""
"[{""page_index"":0,""viewing_time"":1604},{""page_index"":1,""viewing_time"":1048}]","2652","instructions","9","881063","0.0-3.0-6.0","","","","","","","","","","","","",""
"","166893","same-different-html-trial","10","1053966","0.0-3.0-7.0","","0","""thank you""","""prc_arigato.wav""","32","","","","","","","",""
"[{""page_index"":0,""viewing_time"":6422}]","6423","instructions","11","1061391","0.0-3.0-8.0","","","","","","","","","","","","",""
"","4897","same-different-html","12","1068300","0.0-3.0-9.0","","0","""thank you""","""prc_arigato.wav""","191","","","same","1","","","0",""
"","3597","same-different-html","13","1074906","0.0-3.0-10.0","","0","""cat""","""prc_arigato.wav""","191","","","different","0","","","0",""
"[{""page_index"":0,""viewing_time"":6163},{""page_index"":1,""viewing_time"":1143}]","7307","instructions","14","1083220","0.0-3.0-11.0","","","","","","","","","","","","",""
"","1612","same-different-html-trial","15","1090842","0.0-3.0-12.0","","131-9","""suspenseful""","""hara.wav""","32","suspenseful","SRI","","","","","","1"
"","796","same-different-html-trial","16","1098649","0.0-3.0-13.0","","131-9","""fat""","""debu.wav""","32","fat","SRI","","","","","","2"
"","933","same-different-html-trial","17","1106593","0.0-3.0-14.0","","131-9","""clear""","""kukkiri.wav""","32","clear","NRI","","","","","","3"
"","2505","same-different-html-trial","18","1116108","0.0-3.0-15.0","","131-9","""useless""","""damedame.wav""","32","useless","RNAdj","","","","","","4"
"","88","same-different-html-trial","19","1123203","0.0-3.0-16.0","","131-9","""chatty""","""bera.wav""","32","chatty","SRI","","","","","","5"
"","1699","same-different-html-trial","20","1131911","0.0-3.0-17.0","","131-9","""sloppy""","""zatsu.wav""","32","sloppy","NAdj","","","","","","6"
"","372","same-different-html-trial","21","1139297","0.0-3.0-18.0","","131-9","""noisy""","""gaya.wav""","32","noisy","SRI","","","","","","7"
"","522","same-different-html-trial","22","1146828","0.0-3.0-19.0","","131-9","""worn out""","""boroboro.wav""","32","worn out","RI","","","","","","8"
"","933","same-different-html-trial","23","1154770","0.0-3.0-20.0","","131-9","""fast asleep""","""gussuri.wav""","32","fast asleep","NRI","","","","","","9"
"","2543","same-different-html-trial","24","1164323","0.0-3.0-21.0","","131-9","""chubby""","""bukubuku.wav""","32","chubby","RI","","","","","","10"
"","3127","same-different-html-trial","25","1174460","0.0-3.0-22.0","","131-9","""sullen""","""musu.wav""","32","sullen","NRI","","","","","","11"
"","3749","same-different-html-trial","26","1185219","0.0-3.0-23.0","","131-9","""rare""","""maremare.wav""","32","rare","RNAdj","","","","","","12"
"","823","same-different-html-trial","27","1193051","0.0-3.0-24.0","","131-9","""nonchalantly""","""kerokero.wav""","32","nonchalantly","RNRI","","","","","","13"
"","438","same-different-html-trial","28","1200499","0.0-3.0-25.0","","131-9","""humid""","""mushimushi.wav""","32","humid","RI","","","","","","14"
"","324","same-different-html-trial","29","1207834","0.0-3.0-26.0","","131-9","""harsh""","""koku.wav""","32","harsh","NAdj","","","","","","15"
"","303","same-different-html-trial","30","1215147","0.0-3.0-27.0","","131-9","""crowded""","""bisshiribisshiri.wav""","32","crowded","RNRI","","","","","","16"
"","388","same-different-html-trial","31","1222546","0.0-3.0-28.0","","131-9","""pure""","""mukumuku.wav""","32","pure","RNAdj","","","","","","17"
"","415","same-different-html-trial","32","1229970","0.0-3.0-29.0","","131-9","""excessive""","""kadokado.wav""","32","excessive","RNAdj","","","","","","18"
"","414","same-different-html-trial","33","1237395","0.0-3.0-30.0","","131-9","""careful""","""jikkurijikkuri.wav""","32","careful","RNRI","","","","","","19"
"","447","same-different-html-trial","34","1244852","0.0-3.0-31.0","","131-9","""beneficial""","""toku.wav""","32","beneficial","NAdj","","","","","","20"
"","1892","same-different-html-trial","35","1253757","0.0-3.0-32.0","","131-9","""sudden""","""pata.wav""","32","sudden","NRI","","","","","","21"
"","349","same-different-html-trial","36","1261115","0.0-3.0-33.0","","131-9","""plump""","""potcharipotchari.wav""","32","plump","RNRI","","","","","","22"
"","320","same-different-html-trial","37","1268451","0.0-3.0-34.0","","131-9","""glossy""","""tsuyatsuya.wav""","32","glossy","RI","","","","","","23"
"","350","same-different-html-trial","38","1275811","0.0-3.0-35.0","","131-9","""stupid""","""baka.wav""","32","stupid","NAdj","","","","","","24"
"","400","same-different-html-trial","39","1283226","0.0-3.0-36.0","","131-9","""fat""","""debu.wav""","32","fat","SRI","","","","","","25"
"","310","same-different-html-trial","40","1290547","0.0-3.0-37.0","","131-9","""pure""","""mukumuku.wav""","32","pure","RNAdj","","","","","","26"
"","296","same-different-html-trial","41","1297855","0.0-3.0-38.0","","131-9","""crowded""","""bisshiribisshiri.wav""","32","crowded","RNRI","","","","","","27"
"","307","same-different-html-trial","42","1305175","0.0-3.0-39.0","","131-9","""chubby""","""bukubuku.wav""","32","chubby","RI","","","","","","28"
"","550","same-different-html-trial","43","1312741","0.0-3.0-40.0","","131-9","""rare""","""maremare.wav""","32","rare","RNAdj","","","","","","29"
"","331","same-different-html-trial","44","1320082","0.0-3.0-41.0","","131-9","""careful""","""jikkurijikkuri.wav""","32","careful","RNRI","","","","","","30"
"","297","same-different-html-trial","45","1327392","0.0-3.0-42.0","","131-9","""excessive""","""kadokado.wav""","32","excessive","RNAdj","","","","","","31"
"","218","same-different-html-trial","46","1334619","0.0-3.0-43.0","","131-9","""suspenseful""","""hara.wav""","32","suspenseful","SRI","","","","","","32"
"","1854","same-different-html-trial","47","1343482","0.0-3.0-44.0","","131-9","""useless""","""damedame.wav""","32","useless","RNAdj","","","","","","33"
"","135","same-different-html-trial","48","1350627","0.0-3.0-45.0","","131-9","""noisy""","""gaya.wav""","32","noisy","SRI","","","","","","34"
"","1573","same-different-html-trial","49","1359211","0.0-3.0-46.0","","131-9","""worn out""","""boroboro.wav""","32","worn out","RI","","","","","","35"
"","268","same-different-html-trial","50","1366491","0.0-3.0-47.0","","131-9","""plump""","""potcharipotchari.wav""","32","plump","RNRI","","","","","","36"
"","390","same-different-html-trial","51","1373891","0.0-3.0-48.0","","131-9","""humid""","""mushimushi.wav""","32","humid","RI","","","","","","37"
"","304","same-different-html-trial","52","1381203","0.0-3.0-49.0","","131-9","""harsh""","""koku.wav""","32","harsh","NAdj","","","","","","38"
"","365","same-different-html-trial","53","1388579","0.0-3.0-50.0","","131-9","""glossy""","""tsuyatsuya.wav""","32","glossy","RI","","","","","","39"
"","421","same-different-html-trial","54","1396010","0.0-3.0-51.0","","131-9","""fast asleep""","""gussuri.wav""","32","fast asleep","NRI","","","","","","40"
"","368","same-different-html-trial","55","1403387","0.0-3.0-52.0","","131-9","""nonchalantly""","""kerokero.wav""","32","nonchalantly","RNRI","","","","","","41"
"","382","same-different-html-trial","56","1410780","0.0-3.0-53.0","","131-9","""beneficial""","""toku.wav""","32","beneficial","NAdj","","","","","","42"
"","536","same-different-html-trial","57","1418326","0.0-3.0-54.0","","131-9","""chatty""","""bera.wav""","32","chatty","SRI","","","","","","43"
"","1218","same-different-html-trial","58","1426555","0.0-3.0-55.0","","131-9","""sudden""","""pata.wav""","32","sudden","NRI","","","","","","44"
"","374","same-different-html-trial","59","1433938","0.0-3.0-56.0","","131-9","""sullen""","""musu.wav""","32","sullen","NRI","","","","","","45"
"","391","same-different-html-trial","60","1441341","0.0-3.0-57.0","","131-9","""clear""","""kukkiri.wav""","32","clear","NRI","","","","","","46"
"","333","same-different-html-trial","61","1448682","0.0-3.0-58.0","","131-9","""sloppy""","""zatsu.wav""","32","sloppy","NAdj","","","","","","47"
"","1603","same-different-html-trial","62","1457294","0.0-3.0-59.0","","131-9","""stupid""","""baka.wav""","32","stupid","NAdj","","","","","","48"
"[{""page_index"":0,""viewing_time"":9374}]","9374","instructions","63","1467670","0.0-3.0-60.0","","","","","","","","","","","","",""
"","541","same-different-html","64","1470218","0.0-3.0-61.0","","131-9","""sullen""","""musu.wav""","191","sullen","NRI","same","1","T","sullen","Y","1"
"","1161","same-different-html","65","1474385","0.0-3.0-62.0","","131-9","""chubby""","""tsuyatsuya.wav""","191","glossy","RI","different","0","D","chubby","Y","2"
"","42","same-different-html","66","1477433","0.0-3.0-63.0","","131-9","""crowded""","""bukubuku.wav""","191","chubby","RI","different","0","D","crowded","Y","3"
"","564","same-different-html","67","1481004","0.0-3.0-64.0","","131-9","""excessive""","""kerokero.wav""","191","nonchalantly","RNRI","different","0","D","excessive","Y","4"
"","496","same-different-html","68","1484506","0.0-3.0-65.0","","131-9","""clear""","""kukkiri.wav""","191","clear","NRI","same","1","T","clear","Y","5"
"","721","same-different-html","69","1488238","0.0-3.0-66.0","","131-9","""sullen""","""bera.wav""","90","chatty","SRI","different","1","D","sullen","Y","6"
"","87","same-different-html","70","1491331","0.0-3.0-67.0","","131-9","""sloppy""","""zatsu.wav""","90","sloppy","NAdj","same","0","T","sloppy","Y","7"
"","1219","same-different-html","71","1495571","0.0-3.0-68.0","","131-9","""pure""","""mukumuku.wav""","191","pure","RNAdj","same","1","T","pure","Y","8"
"","25","same-different-html","72","1498604","0.0-3.0-69.0","","131-9","""suspenseful""","""hara.wav""","191","suspenseful","SRI","same","1","T","suspenseful","Y","9"
"","411","same-different-html","73","1502021","0.0-3.0-70.0","","131-9","""stupid""","""baka.wav""","191","stupid","NAdj","same","1","T","stupid","Y","10"
"","567","same-different-html","74","1505595","0.0-3.0-71.0","","131-9","""humid""","""mushimushi.wav""","191","humid","RI","same","1","T","humid","Y","11"
"","554","same-different-html","75","1509154","0.0-3.0-72.0","","131-9","""clear""","""baka.wav""","191","stupid","NAdj","different","0","D","clear","Y","12"
"","223","same-different-html","76","1512393","0.0-3.0-73.0","","131-9","""beneficial""","""toku.wav""","90","beneficial","NAdj","same","0","T","beneficial","Y","13"
"","2052","same-different-html","77","1517452","0.0-3.0-74.0","","131-9","""careful""","""zatsu.wav""","191","sloppy","NAdj","different","0","D","careful","Y","14"
"","231","same-different-html","78","1520690","0.0-3.0-75.0","","131-9","""sudden""","""hara.wav""","90","suspenseful","SRI","different","1","D","sudden","Y","15"
"","673","same-different-html","79","1524370","0.0-3.0-76.0","","131-9","""nonchalantly""","""kukkiri.wav""","191","clear","NRI","different","0","D","nonchalantly","Y","16"
"","601","same-different-html","80","1527978","0.0-3.0-77.0","","131-9","""rare""","""maremare.wav""","191","rare","RNAdj","same","1","T","rare","Y","17"
"","1545","same-different-html","81","1532529","0.0-3.0-78.0","","131-9","""noisy""","""gaya.wav""","191","noisy","SRI","same","1","T","noisy","Y","18"
"","3580","same-different-html","82","1539115","0.0-3.0-79.0","","131-9","""chatty""","""bera.wav""","191","chatty","SRI","same","1","T","chatty","Y","19"
"","78","same-different-html","83","1542198","0.0-3.0-80.0","","131-9","""worn out""","""boroboro.wav""","90","worn out","RI","same","0","T","worn out","Y","20"
"","1619","same-different-html","84","1546823","0.0-3.0-81.0","","131-9","""noisy""","""boroboro.wav""","90","worn out","RI","different","1","D","noisy","Y","21"
"","16","same-different-html","85","1549848","0.0-3.0-82.0","","131-9","""harsh""","""koku.wav""","90","harsh","NAdj","same","0","T","harsh","Y","22"
"","8","same-different-html","86","1552863","0.0-3.0-83.0","","131-9","""fast asleep""","""gussuri.wav""","90","fast asleep","NRI","same","0","T","fast asleep","Y","23"
"","262","same-different-html","87","1556132","0.0-3.0-84.0","","131-9","""fat""","""debu.wav""","90","fat","SRI","same","0","T","fat","Y","24"
"","681","same-different-html","88","1559820","0.0-3.0-85.0","","131-9","""humid""","""pata.wav""","90","sudden","NRI","different","1","D","humid","Y","25"
"","88","same-different-html","89","1562914","0.0-3.0-86.0","","131-9","""crowded""","""bisshiribisshiri.wav""","90","crowded","RNRI","same","0","T","crowded","Y","26"
"","553","same-different-html","90","1566474","0.0-3.0-87.0","","131-9","""chatty""","""potcharipotchari.wav""","90","plump","RNRI","different","1","D","chatty","Y","27"
"","105","same-different-html","91","1569586","0.0-3.0-88.0","","131-9","""fat""","""damedame.wav""","90","useless","RNAdj","different","1","D","fat","Y","28"
"","87","same-different-html","92","1572679","0.0-3.0-89.0","","131-9","""useless""","""damedame.wav""","191","useless","RNAdj","same","1","T","useless","Y","29"
"","61","same-different-html","93","1575747","0.0-3.0-90.0","","131-9","""stupid""","""koku.wav""","90","harsh","NAdj","different","1","D","stupid","Y","30"
"","533","same-different-html","94","1579284","0.0-3.0-91.0","","131-9","""plump""","""gaya.wav""","90","noisy","SRI","different","1","D","plump","Y","31"
"","22","same-different-html","95","1582311","0.0-3.0-92.0","","131-9","""fast asleep""","""kadokado.wav""","191","excessive","RNAdj","different","0","D","fast asleep","Y","32"
"","427","same-different-html","96","1585747","0.0-3.0-93.0","","131-9","""beneficial""","""musu.wav""","191","sullen","NRI","different","0","D","beneficial","Y","33"
"","58","same-different-html","97","1588809","0.0-3.0-94.0","","131-9","""sloppy""","""toku.wav""","191","beneficial","NAdj","different","0","D","sloppy","Y","34"
"","788","same-different-html","98","1592602","0.0-3.0-95.0","","131-9","""glossy""","""tsuyatsuya.wav""","191","glossy","RI","same","1","T","glossy","Y","35"
"","491","same-different-html","99","1596098","0.0-3.0-96.0","","131-9","""careful""","""jikkurijikkuri.wav""","90","careful","RNRI","same","0","T","careful","Y","36"
"","98","same-different-html","100","1599203","0.0-3.0-97.0","","131-9","""suspenseful""","""bisshiribisshiri.wav""","90","crowded","RNRI","different","1","D","suspenseful","Y","37"
"","66","same-different-html","101","1602275","0.0-3.0-98.0","","131-9","""rare""","""gussuri.wav""","191","fast asleep","NRI","different","0","D","rare","Y","38"
"","749","same-different-html","102","1606028","0.0-3.0-99.0","","131-9","""useless""","""jikkurijikkuri.wav""","90","careful","RNRI","different","1","D","useless","Y","39"
"","11","same-different-html","103","1609045","0.0-3.0-100.0","","131-9","""chubby""","""bukubuku.wav""","191","chubby","RI","same","1","T","chubby","Y","40"
"","192","same-different-html","104","1612242","0.0-3.0-101.0","","131-9","""pure""","""debu.wav""","191","fat","SRI","different","0","D","pure","Y","41"
"","15","same-different-html","105","1615263","0.0-3.0-102.0","","131-9","""worn out""","""mukumuku.wav""","191","pure","RNAdj","different","0","D","worn out","Y","42"
"","233","same-different-html","106","1618502","0.0-3.0-103.0","","131-9","""nonchalantly""","""kerokero.wav""","90","nonchalantly","RNRI","same","0","T","nonchalantly","Y","43"
"","194","same-different-html","107","1621701","0.0-3.0-104.0","","131-9","""glossy""","""maremare.wav""","90","rare","RNAdj","different","1","D","glossy","Y","44"
"","72","same-different-html","108","1624779","0.0-3.0-105.0","","131-9","""harsh""","""mushimushi.wav""","90","humid","RI","different","1","D","harsh","Y","45"
"","195","same-different-html","109","1627979","0.0-3.0-106.0","","131-9","""plump""","""potcharipotchari.wav""","90","plump","RNRI","same","0","T","plump","Y","46"
"","362","same-different-html","110","1631347","0.0-3.0-107.0","","131-9","""excessive""","""kadokado.wav""","191","excessive","RNAdj","same","1","T","excessive","Y","47"
"","16189","same-different-html","111","1650555","0.0-3.0-108.0","","131-9","""sudden""","""pata.wav""","90","sudden","NRI","same","0","T","sudden","Y","48"
"[{""page_index"":0,""viewing_time"":2718}]","2718","instructions","112","1654274","0.0-3.0-109.0","","","","","","","","","","","","",""
