"view_history","rt","trial_type","trial_index","time_elapsed","internal_node_id","responses","Id","word","sound","key_press","TrueMeaning","WordType","answer","correct","TrialType","TargetMeaning","LegalTrial","trialNum"
"[{""page_index"":0,""viewing_time"":12835}]","12836","instructions","0","12838","0.0-0.0","","","","","","","","","","","","",""
"[{""page_index"":0,""viewing_time"":2134},{""page_index"":1,""viewing_time"":2642},{""page_index"":2,""viewing_time"":8103},{""page_index"":3,""viewing_time"":13021},{""page_index"":4,""viewing_time"":38200}]","64101","instructions","1","76939","0.0-1.0","","","","","","","","","","","","",""
"","14573","survey-multi-choice","2","91516","0.0-2.0","{""Q0"":""Yes"",""Q1"":""Yes"",""Q2"":""Yes"",""Q3"":""Yes"",""Q4"":""Yes""}","","","","","","","","","","","",""
"[{""page_index"":0,""viewing_time"":1938},{""page_index"":1,""viewing_time"":6383}]","8322","instructions","3","99838","0.0-3.0-0.0","","","","","","","","","","","","",""
"","4764","same-different-html-trial","4","110614","0.0-3.0-1.0","","0","""sushi""","""prc_sushi.wav""","32","","","","","","","",""
"[{""page_index"":0,""viewing_time"":10455}]","10455","instructions","5","122074","0.0-3.0-2.0","","","","","","","","","","","","",""
"","4478","same-different-html","6","128560","0.0-3.0-3.0","","0","""sushi""","""prc_sushi.wav""","191","","","same","1","","","0",""
"[{""page_index"":0,""viewing_time"":1741}]","1741","instructions","7","131305","0.0-3.0-4.0","","","","","","","","","","","","",""
"","3889","same-different-html","8","137200","0.0-3.0-5.0","","0","""cat""","""prc_sushi.wav""","90","","","different","1","","","0",""
"[{""page_index"":0,""viewing_time"":2938},{""page_index"":1,""viewing_time"":1496}]","4435","instructions","9","142637","0.0-3.0-6.0","","","","","","","","","","","","",""
"","2652","same-different-html-trial","10","151302","0.0-3.0-7.0","","0","""thank you""","""prc_arigato.wav""","32","","","","","","","",""
"[{""page_index"":0,""viewing_time"":1743}]","1743","instructions","11","154045","0.0-3.0-8.0","","","","","","","","","","","","",""
"","3822","same-different-html","12","159873","0.0-3.0-9.0","","0","""thank you""","""prc_arigato.wav""","191","","","same","1","","","0",""
"","1586","same-different-html","13","164471","0.0-3.0-10.0","","0","""cat""","""prc_arigato.wav""","90","","","different","1","","","0",""
"[{""page_index"":0,""viewing_time"":1595},{""page_index"":1,""viewing_time"":30909}]","32504","instructions","14","197976","0.0-3.0-11.0","","","","","","","","","","","","",""
"","3105","same-different-html-trial","15","207096","0.0-3.0-12.0","","5336-2","""whole""","""gosogoso.wav""","32","whole","RNRI","","","","","","1"
"","4940","same-different-html-trial","16","219050","0.0-3.0-13.0","","5336-2","""sloppy""","""zatsu.wav""","32","sloppy","NAdj","","","","","","2"
"","5042","same-different-html-trial","17","231112","0.0-3.0-14.0","","5336-2","""hesitant""","""mojimoji.wav""","32","hesitant","RI","","","","","","3"
"","4951","same-different-html-trial","18","243082","0.0-3.0-15.0","","5336-2","""rash""","""mucha.wav""","32","rash","NAdj","","","","","","4"
"","12348","same-different-html-trial","19","262450","0.0-3.0-16.0","","5336-2","""dejected""","""gakugaku.wav""","32","dejected","RNRI","","","","","","5"
"","4381","same-different-html-trial","20","273850","0.0-3.0-17.0","","5336-2","""impossible""","""murimuri.wav""","32","impossible","RNAdj","","","","","","6"
"","4367","same-different-html-trial","21","285237","0.0-3.0-18.0","","5336-2","""pure""","""mukumuku.wav""","32","pure","RNAdj","","","","","","7"
"","2198","same-different-html-trial","22","294454","0.0-3.0-19.0","","5336-2","""deficient""","""fubifubi.wav""","32","deficient","RNAdj","","","","","","8"
"","244","same-different-html-trial","23","301716","0.0-3.0-20.0","","5336-2","""rude""","""zuke.wav""","32","rude","SRI","","","","","","9"
"","806","same-different-html-trial","24","309538","0.0-3.0-21.0","","5336-2","""fragile""","""yawa.wav""","32","fragile","NAdj","","","","","","10"
"","1510","same-different-html-trial","25","318067","0.0-3.0-22.0","","5336-2","""subdued""","""jimi.wav""","32","subdued","NAdj","","","","","","11"
"","3387","same-different-html-trial","26","328475","0.0-3.0-23.0","","5336-2","""decisive""","""pisha.wav""","32","decisive","NRI","","","","","","12"
"","1728","same-different-html-trial","27","337219","0.0-3.0-24.0","","5336-2","""humid""","""mushi.wav""","32","humid","SRI","","","","","","13"
"","1802","same-different-html-trial","28","346036","0.0-3.0-25.0","","5336-2","""rare""","""maremare.wav""","32","rare","RNAdj","","","","","","14"
"","925","same-different-html-trial","29","353980","0.0-3.0-26.0","","5336-2","""steaming""","""hokahoka.wav""","32","steaming","RI","","","","","","15"
"","1418","same-different-html-trial","30","362417","0.0-3.0-27.0","","5336-2","""smooth""","""nopperi.wav""","32","smooth","NRI","","","","","","16"
"","1893","same-different-html-trial","31","371323","0.0-3.0-28.0","","5336-2","""gaping""","""poka.wav""","32","gaping","NRI","","","","","","17"
"","4017","same-different-html-trial","32","382360","0.0-3.0-29.0","","5336-2","""resolute""","""bassari.wav""","32","resolute","NRI","","","","","","18"
"","1224","same-different-html-trial","33","390604","0.0-3.0-30.0","","5336-2","""energetic""","""kibi.wav""","32","energetic","SRI","","","","","","19"
"","3183","same-different-html-trial","34","400801","0.0-3.0-31.0","","5336-2","""sturdy""","""gashigashi.wav""","32","sturdy","RNRI","","","","","","20"
"","4368","same-different-html-trial","35","412188","0.0-3.0-32.0","","5336-2","""fat""","""debudebu.wav""","32","fat","RI","","","","","","21"
"","1186","same-different-html-trial","36","420396","0.0-3.0-33.0","","5336-2","""crowded""","""bisshiribisshiri.wav""","32","crowded","RNRI","","","","","","22"
"","1966","same-different-html-trial","37","429381","0.0-3.0-34.0","","5336-2","""stiff""","""gowagowa.wav""","32","stiff","RI","","","","","","23"
"","3123","same-different-html-trial","38","439520","0.0-3.0-35.0","","5336-2","""messy""","""gocha.wav""","32","messy","SRI","","","","","","24"
"","2530","same-different-html-trial","39","449063","0.0-3.0-36.0","","5336-2","""rare""","""maremare.wav""","32","rare","RNAdj","","","","","","25"
"","718","same-different-html-trial","40","456799","0.0-3.0-37.0","","5336-2","""crowded""","""bisshiribisshiri.wav""","32","crowded","RNRI","","","","","","26"
"","1710","same-different-html-trial","41","465527","0.0-3.0-38.0","","5336-2","""decisive""","""pisha.wav""","32","decisive","NRI","","","","","","27"
"","10577","same-different-html-trial","42","483126","0.0-3.0-39.0","","5336-2","""rude""","""zuke.wav""","32","rude","SRI","","","","","","28"
"","830","same-different-html-trial","43","490974","0.0-3.0-40.0","","5336-2","""resolute""","""bassari.wav""","32","resolute","NRI","","","","","","29"
"","4003","same-different-html-trial","44","501992","0.0-3.0-41.0","","5336-2","""stiff""","""gowagowa.wav""","32","stiff","RI","","","","","","30"
"","3992","same-different-html-trial","45","513003","0.0-3.0-42.0","","5336-2","""subdued""","""jimi.wav""","32","subdued","NAdj","","","","","","31"
"","550","same-different-html-trial","46","520569","0.0-3.0-43.0","","5336-2","""humid""","""mushi.wav""","32","humid","SRI","","","","","","32"
"","1091","same-different-html-trial","47","528678","0.0-3.0-44.0","","5336-2","""deficient""","""fubifubi.wav""","32","deficient","RNAdj","","","","","","33"
"","1829","same-different-html-trial","48","537524","0.0-3.0-45.0","","5336-2","""whole""","""gosogoso.wav""","32","whole","RNRI","","","","","","34"
"","301","same-different-html-trial","49","544840","0.0-3.0-46.0","","5336-2","""smooth""","""nopperi.wav""","32","smooth","NRI","","","","","","35"
"","5252","same-different-html-trial","50","557111","0.0-3.0-47.0","","5336-2","""dejected""","""gakugaku.wav""","32","dejected","RNRI","","","","","","36"
"","269","same-different-html-trial","51","564399","0.0-3.0-48.0","","5336-2","""pure""","""mukumuku.wav""","32","pure","RNAdj","","","","","","37"
"","1250","same-different-html-trial","52","572662","0.0-3.0-49.0","","5336-2","""sloppy""","""zatsu.wav""","32","sloppy","NAdj","","","","","","38"
"","1608","same-different-html-trial","53","581287","0.0-3.0-50.0","","5336-2","""steaming""","""hokahoka.wav""","32","steaming","RI","","","","","","39"
"","2225","same-different-html-trial","54","590531","0.0-3.0-51.0","","5336-2","""energetic""","""kibi.wav""","32","energetic","SRI","","","","","","40"
"","873","same-different-html-trial","55","598418","0.0-3.0-52.0","","5336-2","""gaping""","""poka.wav""","32","gaping","NRI","","","","","","41"
"","1389","same-different-html-trial","56","606823","0.0-3.0-53.0","","5336-2","""impossible""","""murimuri.wav""","32","impossible","RNAdj","","","","","","42"
"","1244","same-different-html-trial","57","615086","0.0-3.0-54.0","","5336-2","""hesitant""","""mojimoji.wav""","32","hesitant","RI","","","","","","43"
"","1065","same-different-html-trial","58","623169","0.0-3.0-55.0","","5336-2","""messy""","""gocha.wav""","32","messy","SRI","","","","","","44"
"","1573","same-different-html-trial","59","631758","0.0-3.0-56.0","","5336-2","""fat""","""debudebu.wav""","32","fat","RI","","","","","","45"
"","25212","same-different-html-trial","60","663984","0.0-3.0-57.0","","5336-2","""sturdy""","""gashigashi.wav""","32","sturdy","RNRI","","","","","","46"
"","3100","same-different-html-trial","61","674097","0.0-3.0-58.0","","5336-2","""fragile""","""yawa.wav""","32","fragile","NAdj","","","","","","47"
"","1765","same-different-html-trial","62","682880","0.0-3.0-59.0","","5336-2","""rash""","""mucha.wav""","32","rash","NAdj","","","","","","48"
"[{""page_index"":0,""viewing_time"":24288}]","24288","instructions","63","708171","0.0-3.0-60.0","","","","","","","","","","","","",""
"","2140","same-different-html","64","712321","0.0-3.0-61.0","","5336-2","""fat""","""debudebu.wav""","191","fat","RI","same","1","T","fat","Y","1"
"","6514","same-different-html","65","721841","0.0-3.0-62.0","","5336-2","""energetic""","""murimuri.wav""","90","impossible","RNAdj","different","1","D","energetic","Y","2"
"","2751","same-different-html","66","727598","0.0-3.0-63.0","","5336-2","""messy""","""gocha.wav""","191","messy","SRI","same","1","T","messy","Y","3"
"","3243","same-different-html","67","733852","0.0-3.0-64.0","","5336-2","""rare""","""maremare.wav""","191","rare","RNAdj","same","1","T","rare","Y","4"
"","2692","same-different-html","68","739555","0.0-3.0-65.0","","5336-2","""dejected""","""gosogoso.wav""","90","whole","RNRI","different","1","D","dejected","Y","5"
"","3974","same-different-html","69","746537","0.0-3.0-66.0","","5336-2","""impossible""","""debudebu.wav""","90","fat","RI","different","1","D","impossible","Y","6"
"","2280","same-different-html","70","751826","0.0-3.0-67.0","","5336-2","""rash""","""nopperi.wav""","90","smooth","NRI","different","1","D","rash","Y","7"
"","1626","same-different-html","71","756460","0.0-3.0-68.0","","5336-2","""decisive""","""pisha.wav""","191","decisive","NRI","same","1","T","decisive","Y","8"
"","3250","same-different-html","72","762719","0.0-3.0-69.0","","5336-2","""steaming""","""gashigashi.wav""","191","sturdy","RNRI","different","0","D","steaming","Y","9"
"","3061","same-different-html","73","768791","0.0-3.0-70.0","","5336-2","""gaping""","""fubifubi.wav""","90","deficient","RNAdj","different","1","D","gaping","Y","10"
"","2961","same-different-html","74","774762","0.0-3.0-71.0","","5336-2","""whole""","""gosogoso.wav""","191","whole","RNRI","same","1","T","whole","Y","11"
"","2936","same-different-html","75","780709","0.0-3.0-72.0","","5336-2","""stiff""","""gocha.wav""","90","messy","SRI","different","1","D","stiff","Y","12"
"","4695","same-different-html","76","788417","0.0-3.0-73.0","","5336-2","""fragile""","""yawa.wav""","191","fragile","NAdj","same","1","T","fragile","Y","13"
"","3052","same-different-html","77","794482","0.0-3.0-74.0","","5336-2","""subdued""","""jimi.wav""","191","subdued","NAdj","same","1","T","subdued","Y","14"
"","3382","same-different-html","78","800876","0.0-3.0-75.0","","5336-2","""rude""","""jimi.wav""","90","subdued","NAdj","different","1","D","rude","Y","15"
"","3269","same-different-html","79","807156","0.0-3.0-76.0","","5336-2","""deficient""","""fubifubi.wav""","90","deficient","RNAdj","same","0","T","deficient","Y","16"
"","3025","same-different-html","80","813190","0.0-3.0-77.0","","5336-2","""dejected""","""gakugaku.wav""","90","dejected","RNRI","same","0","T","dejected","Y","17"
"","2716","same-different-html","81","818916","0.0-3.0-78.0","","5336-2","""rude""","""zuke.wav""","191","rude","SRI","same","1","T","rude","Y","18"
"","3763","same-different-html","82","825687","0.0-3.0-79.0","","5336-2","""deficient""","""bisshiribisshiri.wav""","90","crowded","RNRI","different","1","D","deficient","Y","19"
"","3039","same-different-html","83","831733","0.0-3.0-80.0","","5336-2","""sloppy""","""gowagowa.wav""","90","stiff","RI","different","1","D","sloppy","Y","20"
"","2893","same-different-html","84","837638","0.0-3.0-81.0","","5336-2","""crowded""","""zatsu.wav""","90","sloppy","NAdj","different","1","D","crowded","Y","21"
"","2927","same-different-html","85","843577","0.0-3.0-82.0","","5336-2","""hesitant""","""mojimoji.wav""","191","hesitant","RI","same","1","T","hesitant","Y","22"
"","2894","same-different-html","86","849481","0.0-3.0-83.0","","5336-2","""pure""","""mukumuku.wav""","90","pure","RNAdj","same","0","T","pure","Y","23"
"","2895","same-different-html","87","855385","0.0-3.0-84.0","","5336-2","""steaming""","""hokahoka.wav""","191","steaming","RI","same","1","T","steaming","Y","24"
"","3181","same-different-html","88","861573","0.0-3.0-85.0","","5336-2","""humid""","""pisha.wav""","90","decisive","NRI","different","1","D","humid","Y","25"
"","2858","same-different-html","89","867443","0.0-3.0-86.0","","5336-2","""decisive""","""hokahoka.wav""","90","steaming","RI","different","1","D","decisive","Y","26"
"","2850","same-different-html","90","873305","0.0-3.0-87.0","","5336-2","""smooth""","""mushi.wav""","90","humid","SRI","different","1","D","smooth","Y","27"
"","2844","same-different-html","91","879159","0.0-3.0-88.0","","5336-2","""crowded""","""bisshiribisshiri.wav""","191","crowded","RNRI","same","1","T","crowded","Y","28"
"","1576","same-different-html","92","883749","0.0-3.0-89.0","","5336-2","""gaping""","""poka.wav""","191","gaping","NRI","same","1","T","gaping","Y","29"
"","2338","same-different-html","93","889097","0.0-3.0-90.0","","5336-2","""fat""","""poka.wav""","90","gaping","NRI","different","1","D","fat","Y","30"
"","2811","same-different-html","94","894915","0.0-3.0-91.0","","5336-2","""sturdy""","""mucha.wav""","191","rash","NAdj","different","0","D","sturdy","Y","31"
"","2925","same-different-html","95","900849","0.0-3.0-92.0","","5336-2","""subdued""","""mojimoji.wav""","90","hesitant","RI","different","1","D","subdued","Y","32"
"","2747","same-different-html","96","906602","0.0-3.0-93.0","","5336-2","""smooth""","""nopperi.wav""","191","smooth","NRI","same","1","T","smooth","Y","33"
"","1646","same-different-html","97","911258","0.0-3.0-94.0","","5336-2","""fragile""","""gakugaku.wav""","90","dejected","RNRI","different","1","D","fragile","Y","34"
"","2233","same-different-html","98","916505","0.0-3.0-95.0","","5336-2","""sturdy""","""gashigashi.wav""","90","sturdy","RNRI","same","0","T","sturdy","Y","35"
"","1500","same-different-html","99","921015","0.0-3.0-96.0","","5336-2","""resolute""","""bassari.wav""","191","resolute","NRI","same","1","T","resolute","Y","36"
"","1853","same-different-html","100","925877","0.0-3.0-97.0","","5336-2","""pure""","""maremare.wav""","90","rare","RNAdj","different","1","D","pure","Y","37"
"","2277","same-different-html","101","931167","0.0-3.0-98.0","","5336-2","""rash""","""mucha.wav""","191","rash","NAdj","same","1","T","rash","Y","38"
"","2411","same-different-html","102","936589","0.0-3.0-99.0","","5336-2","""whole""","""bassari.wav""","90","resolute","NRI","different","1","D","whole","Y","39"
"","1199","same-different-html","103","940796","0.0-3.0-100.0","","5336-2","""resolute""","""kibi.wav""","90","energetic","SRI","different","1","D","resolute","Y","40"
"","1797","same-different-html","104","945608","0.0-3.0-101.0","","5336-2","""impossible""","""murimuri.wav""","191","impossible","RNAdj","same","1","T","impossible","Y","41"
"","1870","same-different-html","105","950487","0.0-3.0-102.0","","5336-2","""hesitant""","""zuke.wav""","90","rude","SRI","different","1","D","hesitant","Y","42"
"","2062","same-different-html","106","955556","0.0-3.0-103.0","","5336-2","""humid""","""mushi.wav""","191","humid","SRI","same","1","T","humid","Y","43"
"","3337","same-different-html","107","961903","0.0-3.0-104.0","","5336-2","""stiff""","""gowagowa.wav""","191","stiff","RI","same","1","T","stiff","Y","44"
"","1482","same-different-html","108","966397","0.0-3.0-105.0","","5336-2","""sloppy""","""zatsu.wav""","191","sloppy","NAdj","same","1","T","sloppy","Y","45"
"","1980","same-different-html","109","971390","0.0-3.0-106.0","","5336-2","""rare""","""yawa.wav""","90","fragile","NAdj","different","1","D","rare","Y","46"
"","2081","same-different-html","110","976475","0.0-3.0-107.0","","5336-2","""energetic""","""kibi.wav""","191","energetic","SRI","same","1","T","energetic","Y","47"
"","2157","same-different-html","111","981643","0.0-3.0-108.0","","5336-2","""messy""","""mukumuku.wav""","191","pure","RNAdj","different","0","D","messy","Y","48"
"[{""page_index"":0,""viewing_time"":16732}]","16732","instructions","112","999376","0.0-3.0-109.0","","","","","","","","","","","","",""
