"view_history","rt","trial_type","trial_index","time_elapsed","internal_node_id","responses","Id","word","sound","key_press","TrueMeaning","WordType","answer","correct","TrialType","TargetMeaning","LegalTrial","trialNum"
"[{""page_index"":0,""viewing_time"":11248}]","11249","instructions","0","11252","0.0-0.0","","","","","","","","","","","","",""
"[{""page_index"":0,""viewing_time"":8303},{""page_index"":1,""viewing_time"":6413},{""page_index"":2,""viewing_time"":3195},{""page_index"":3,""viewing_time"":11437},{""page_index"":4,""viewing_time"":41799}]","71147","instructions","1","82400","0.0-1.0","","","","","","","","","","","","",""
"","16531","survey-multi-choice","2","98935","0.0-2.0","{""Q0"":""Yes"",""Q1"":""Yes"",""Q2"":""Yes"",""Q3"":""Yes"",""Q4"":""Yes""}","","","","","","","","","","","",""
"[{""page_index"":0,""viewing_time"":1348},{""page_index"":1,""viewing_time"":8817}]","10165","instructions","3","109100","0.0-3.0-0.0","","","","","","","","","","","","",""
"","3615","same-different-html-trial","4","118731","0.0-3.0-1.0","","0","""sushi""","""prc_sushi.wav""","32","","","","","","","",""
"[{""page_index"":0,""viewing_time"":11000}]","11000","instructions","5","130732","0.0-3.0-2.0","","","","","","","","","","","","",""
"","8555","same-different-html","6","141293","0.0-3.0-3.0","","0","""sushi""","""prc_sushi.wav""","191","","","same","1","","","0",""
"[{""page_index"":0,""viewing_time"":2866}]","2866","instructions","7","145162","0.0-3.0-4.0","","","","","","","","","","","","",""
"","2438","same-different-html","8","149606","0.0-3.0-5.0","","0","""cat""","""prc_sushi.wav""","90","","","different","1","","","0",""
"[{""page_index"":0,""viewing_time"":5341},{""page_index"":1,""viewing_time"":2254}]","7596","instructions","9","158202","0.0-3.0-6.0","","","","","","","","","","","","",""
"","2030","same-different-html-trial","10","166237","0.0-3.0-7.0","","0","""thank you""","""prc_arigato.wav""","32","","","","","","","",""
"[{""page_index"":0,""viewing_time"":4173}]","4173","instructions","11","171410","0.0-3.0-8.0","","","","","","","","","","","","",""
"","1422","same-different-html","12","174836","0.0-3.0-9.0","","0","""thank you""","""prc_arigato.wav""","191","","","same","1","","","0",""
"","1779","same-different-html","13","179621","0.0-3.0-10.0","","0","""cat""","""prc_arigato.wav""","90","","","different","1","","","0",""
"[{""page_index"":0,""viewing_time"":2501},{""page_index"":1,""viewing_time"":12037}]","14539","instructions","14","195162","0.0-3.0-11.0","","","","","","","","","","","","",""
"","3470","same-different-html-trial","15","204637","0.0-3.0-12.0","","6738-3","""hesitant""","""moji.wav""","32","hesitant","SRI","","","","","","1"
"","5262","same-different-html-trial","16","216908","0.0-3.0-13.0","","6738-3","""fragile""","""yawayawa.wav""","32","fragile","RNAdj","","","","","","2"
"","3304","same-different-html-trial","17","227220","0.0-3.0-14.0","","6738-3","""excessive""","""kado.wav""","32","excessive","NAdj","","","","","","3"
"","3294","same-different-html-trial","18","237525","0.0-3.0-15.0","","6738-3","""gaping""","""pokapoka.wav""","32","gaping","RNRI","","","","","","4"
"","1973","same-different-html-trial","19","246508","0.0-3.0-16.0","","6738-3","""humid""","""mushimushi.wav""","32","humid","RI","","","","","","5"
"","1918","same-different-html-trial","20","255437","0.0-3.0-17.0","","6738-3","""steaming""","""hoka.wav""","32","steaming","SRI","","","","","","6"
"","2088","same-different-html-trial","21","264532","0.0-3.0-18.0","","6738-3","""noisy""","""gayagaya.wav""","32","noisy","RI","","","","","","7"
"","1263","same-different-html-trial","22","272806","0.0-3.0-19.0","","6738-3","""smooth""","""nopperi.wav""","32","smooth","NRI","","","","","","8"
"","1716","same-different-html-trial","23","281532","0.0-3.0-20.0","","6738-3","""worn out""","""boroboro.wav""","32","worn out","RI","","","","","","9"
"","1748","same-different-html-trial","24","290293","0.0-3.0-21.0","","6738-3","""dejected""","""gakugaku.wav""","32","dejected","RNRI","","","","","","10"
"","2179","same-different-html-trial","25","299484","0.0-3.0-22.0","","6738-3","""beneficial""","""tokutoku.wav""","32","beneficial","RNAdj","","","","","","11"
"","1246","same-different-html-trial","26","307739","0.0-3.0-23.0","","6738-3","""messy""","""gocha.wav""","32","messy","SRI","","","","","","12"
"","1682","same-different-html-trial","27","316428","0.0-3.0-24.0","","6738-3","""resolute""","""bassari.wav""","32","resolute","NRI","","","","","","13"
"","2373","same-different-html-trial","28","325811","0.0-3.0-25.0","","6738-3","""perfect""","""batchiribatchiri.wav""","32","perfect","RNRI","","","","","","14"
"","1313","same-different-html-trial","29","334132","0.0-3.0-26.0","","6738-3","""smug""","""kiza.wav""","32","smug","NAdj","","","","","","15"
"","1310","same-different-html-trial","30","342453","0.0-3.0-27.0","","6738-3","""stupid""","""bakabaka.wav""","32","stupid","RNAdj","","","","","","16"
"","1319","same-different-html-trial","31","350779","0.0-3.0-28.0","","6738-3","""clear""","""kukkiri.wav""","32","clear","NRI","","","","","","17"
"","2561","same-different-html-trial","32","360349","0.0-3.0-29.0","","6738-3","""wobbly""","""yura.wav""","32","wobbly","SRI","","","","","","18"
"","2458","same-different-html-trial","33","369820","0.0-3.0-30.0","","6738-3","""plump""","""potchari.wav""","32","plump","NRI","","","","","","19"
"","2298","same-different-html-trial","34","379126","0.0-3.0-31.0","","6738-3","""free""","""hima.wav""","32","free","NAdj","","","","","","20"
"","1896","same-different-html-trial","35","388029","0.0-3.0-32.0","","6738-3","""suspenseful""","""harahara.wav""","32","suspenseful","RI","","","","","","21"
"","1687","same-different-html-trial","36","396726","0.0-3.0-33.0","","6738-3","""impossible""","""murimuri.wav""","32","impossible","RNAdj","","","","","","22"
"","3012","same-different-html-trial","37","406748","0.0-3.0-34.0","","6738-3","""decisive""","""pishapisha.wav""","32","decisive","RNRI","","","","","","23"
"","1236","same-different-html-trial","38","414995","0.0-3.0-35.0","","6738-3","""pure""","""muku.wav""","32","pure","NAdj","","","","","","24"
"","1583","same-different-html-trial","39","423590","0.0-3.0-36.0","","6738-3","""smooth""","""nopperi.wav""","32","smooth","NRI","","","","","","25"
"","1896","same-different-html-trial","40","432492","0.0-3.0-37.0","","6738-3","""beneficial""","""tokutoku.wav""","32","beneficial","RNAdj","","","","","","26"
"","1233","same-different-html-trial","41","440733","0.0-3.0-38.0","","6738-3","""clear""","""kukkiri.wav""","32","clear","NRI","","","","","","27"
"","2108","same-different-html-trial","42","449852","0.0-3.0-39.0","","6738-3","""perfect""","""batchiribatchiri.wav""","32","perfect","RNRI","","","","","","28"
"","3309","same-different-html-trial","43","460165","0.0-3.0-40.0","","6738-3","""steaming""","""hoka.wav""","32","steaming","SRI","","","","","","29"
"","3016","same-different-html-trial","44","470189","0.0-3.0-41.0","","6738-3","""hesitant""","""moji.wav""","32","hesitant","SRI","","","","","","30"
"","3935","same-different-html-trial","45","481132","0.0-3.0-42.0","","6738-3","""wobbly""","""yura.wav""","32","wobbly","SRI","","","","","","31"
"","2998","same-different-html-trial","46","491141","0.0-3.0-43.0","","6738-3","""dejected""","""gakugaku.wav""","32","dejected","RNRI","","","","","","32"
"","1830","same-different-html-trial","47","499980","0.0-3.0-44.0","","6738-3","""worn out""","""boroboro.wav""","32","worn out","RI","","","","","","33"
"","1345","same-different-html-trial","48","508332","0.0-3.0-45.0","","6738-3","""stupid""","""bakabaka.wav""","32","stupid","RNAdj","","","","","","34"
"","1646","same-different-html-trial","49","516988","0.0-3.0-46.0","","6738-3","""gaping""","""pokapoka.wav""","32","gaping","RNRI","","","","","","35"
"","1254","same-different-html-trial","50","525251","0.0-3.0-47.0","","6738-3","""plump""","""potchari.wav""","32","plump","NRI","","","","","","36"
"","1039","same-different-html-trial","51","533300","0.0-3.0-48.0","","6738-3","""excessive""","""kado.wav""","32","excessive","NAdj","","","","","","37"
"","1769","same-different-html-trial","52","542076","0.0-3.0-49.0","","6738-3","""fragile""","""yawayawa.wav""","32","fragile","RNAdj","","","","","","38"
"","1287","same-different-html-trial","53","550372","0.0-3.0-50.0","","6738-3","""impossible""","""murimuri.wav""","32","impossible","RNAdj","","","","","","39"
"","2097","same-different-html-trial","54","559477","0.0-3.0-51.0","","6738-3","""resolute""","""bassari.wav""","32","resolute","NRI","","","","","","40"
"","3206","same-different-html-trial","55","569692","0.0-3.0-52.0","","6738-3","""pure""","""muku.wav""","32","pure","NAdj","","","","","","41"
"","5631","same-different-html-trial","56","582334","0.0-3.0-53.0","","6738-3","""humid""","""mushimushi.wav""","32","humid","RI","","","","","","42"
"","9669","same-different-html-trial","57","599012","0.0-3.0-54.0","","6738-3","""decisive""","""pishapisha.wav""","32","decisive","RNRI","","","","","","43"
"","1968","same-different-html-trial","58","607988","0.0-3.0-55.0","","6738-3","""smug""","""kiza.wav""","32","smug","NAdj","","","","","","44"
"","1904","same-different-html-trial","59","616900","0.0-3.0-56.0","","6738-3","""messy""","""gocha.wav""","32","messy","SRI","","","","","","45"
"","1696","same-different-html-trial","60","625604","0.0-3.0-57.0","","6738-3","""free""","""hima.wav""","32","free","NAdj","","","","","","46"
"","2307","same-different-html-trial","61","634917","0.0-3.0-58.0","","6738-3","""suspenseful""","""harahara.wav""","32","suspenseful","RI","","","","","","47"
"","1407","same-different-html-trial","62","643332","0.0-3.0-59.0","","6738-3","""noisy""","""gayagaya.wav""","32","noisy","RI","","","","","","48"
"[{""page_index"":0,""viewing_time"":11327}]","11327","instructions","63","655660","0.0-3.0-60.0","","","","","","","","","","","","",""
"","4365","same-different-html","64","662029","0.0-3.0-61.0","","6738-3","""fragile""","""yawayawa.wav""","90","fragile","RNAdj","same","0","T","fragile","Y","1"
"","2981","same-different-html","65","668012","0.0-3.0-62.0","","6738-3","""gaping""","""moji.wav""","90","hesitant","SRI","different","1","D","gaping","Y","2"
"","2907","same-different-html","66","673924","0.0-3.0-63.0","","6738-3","""excessive""","""bassari.wav""","191","resolute","NRI","different","0","D","excessive","Y","3"
"","2913","same-different-html","67","679845","0.0-3.0-64.0","","6738-3","""wobbly""","""harahara.wav""","191","suspenseful","RI","different","0","D","wobbly","Y","4"
"","3122","same-different-html","68","685972","0.0-3.0-65.0","","6738-3","""smug""","""pishapisha.wav""","191","decisive","RNRI","different","0","D","smug","Y","5"
"","3070","same-different-html","69","692044","0.0-3.0-66.0","","6738-3","""steaming""","""muku.wav""","90","pure","NAdj","different","1","D","steaming","Y","6"
"","3043","same-different-html","70","698092","0.0-3.0-67.0","","6738-3","""humid""","""mushimushi.wav""","191","humid","RI","same","1","T","humid","Y","7"
"","2957","same-different-html","71","704052","0.0-3.0-68.0","","6738-3","""wobbly""","""yura.wav""","90","wobbly","SRI","same","0","T","wobbly","Y","8"
"","5101","same-different-html","72","712157","0.0-3.0-69.0","","6738-3","""pure""","""yawayawa.wav""","191","fragile","RNAdj","different","0","D","pure","Y","9"
"","3015","same-different-html","73","718180","0.0-3.0-70.0","","6738-3","""decisive""","""kiza.wav""","191","smug","NAdj","different","0","D","decisive","Y","10"
"","2876","same-different-html","74","724061","0.0-3.0-71.0","","6738-3","""smooth""","""nopperi.wav""","191","smooth","NRI","same","1","T","smooth","Y","11"
"","2921","same-different-html","75","729987","0.0-3.0-72.0","","6738-3","""noisy""","""gayagaya.wav""","191","noisy","RI","same","1","T","noisy","Y","12"
"","2789","same-different-html","76","735780","0.0-3.0-73.0","","6738-3","""fragile""","""boroboro.wav""","191","worn out","RI","different","0","D","fragile","Y","13"
"","2698","same-different-html","77","741485","0.0-3.0-74.0","","6738-3","""hesitant""","""moji.wav""","90","hesitant","SRI","same","0","T","hesitant","Y","14"
"","2891","same-different-html","78","747381","0.0-3.0-75.0","","6738-3","""messy""","""kado.wav""","191","excessive","NAdj","different","0","D","messy","Y","15"
"","2880","same-different-html","79","753269","0.0-3.0-76.0","","6738-3","""smooth""","""gakugaku.wav""","90","dejected","RNRI","different","1","D","smooth","Y","16"
"","3042","same-different-html","80","759317","0.0-3.0-77.0","","6738-3","""plump""","""bakabaka.wav""","191","stupid","RNAdj","different","0","D","plump","Y","17"
"","4699","same-different-html","81","767021","0.0-3.0-78.0","","6738-3","""suspenseful""","""murimuri.wav""","90","impossible","RNAdj","different","1","D","suspenseful","Y","18"
"","2900","same-different-html","82","772925","0.0-3.0-79.0","","6738-3","""resolute""","""bassari.wav""","191","resolute","NRI","same","1","T","resolute","Y","19"
"","5882","same-different-html","83","781812","0.0-3.0-80.0","","6738-3","""steaming""","""hoka.wav""","191","steaming","SRI","same","1","T","steaming","Y","20"
"","2866","same-different-html","84","787684","0.0-3.0-81.0","","6738-3","""perfect""","""tokutoku.wav""","191","beneficial","RNAdj","different","0","D","perfect","Y","21"
"","2956","same-different-html","85","793645","0.0-3.0-82.0","","6738-3","""messy""","""gocha.wav""","90","messy","SRI","same","0","T","messy","Y","22"
"","3378","same-different-html","86","800028","0.0-3.0-83.0","","6738-3","""clear""","""batchiribatchiri.wav""","191","perfect","RNRI","different","0","D","clear","Y","23"
"","3052","same-different-html","87","806084","0.0-3.0-84.0","","6738-3","""beneficial""","""hima.wav""","90","free","NAdj","different","1","D","beneficial","Y","24"
"","3188","same-different-html","88","812277","0.0-3.0-85.0","","6738-3","""clear""","""kukkiri.wav""","191","clear","NRI","same","1","T","clear","Y","25"
"","3610","same-different-html","89","818893","0.0-3.0-86.0","","6738-3","""plump""","""potchari.wav""","191","plump","NRI","same","1","T","plump","Y","26"
"","3019","same-different-html","90","824917","0.0-3.0-87.0","","6738-3","""stupid""","""hoka.wav""","90","steaming","SRI","different","1","D","stupid","Y","27"
"","3100","same-different-html","91","831020","0.0-3.0-88.0","","6738-3","""smug""","""kiza.wav""","191","smug","NAdj","same","1","T","smug","Y","28"
"","3278","same-different-html","92","837302","0.0-3.0-89.0","","6738-3","""dejected""","""gakugaku.wav""","191","dejected","RNRI","same","1","T","dejected","Y","29"
"","2946","same-different-html","93","843253","0.0-3.0-90.0","","6738-3","""perfect""","""batchiribatchiri.wav""","191","perfect","RNRI","same","1","T","perfect","Y","30"
"","3125","same-different-html","94","849381","0.0-3.0-91.0","","6738-3","""gaping""","""pokapoka.wav""","90","gaping","RNRI","same","0","T","gaping","Y","31"
"","2939","same-different-html","95","855324","0.0-3.0-92.0","","6738-3","""beneficial""","""tokutoku.wav""","191","beneficial","RNAdj","same","1","T","beneficial","Y","32"
"","3868","same-different-html","96","862198","0.0-3.0-93.0","","6738-3","""hesitant""","""kukkiri.wav""","90","clear","NRI","different","1","D","hesitant","Y","33"
"","5026","same-different-html","97","870229","0.0-3.0-94.0","","6738-3","""excessive""","""kado.wav""","191","excessive","NAdj","same","1","T","excessive","Y","34"
"","3869","same-different-html","98","877101","0.0-3.0-95.0","","6738-3","""noisy""","""gocha.wav""","191","messy","SRI","different","0","D","noisy","Y","35"
"","1828","same-different-html","99","881932","0.0-3.0-96.0","","6738-3","""suspenseful""","""harahara.wav""","191","suspenseful","RI","same","1","T","suspenseful","Y","36"
"","2483","same-different-html","100","887420","0.0-3.0-97.0","","6738-3","""decisive""","""pishapisha.wav""","90","decisive","RNRI","same","0","T","decisive","Y","37"
"","1893","same-different-html","101","892317","0.0-3.0-98.0","","6738-3","""worn out""","""potchari.wav""","191","plump","NRI","different","0","D","worn out","Y","38"
"","2339","same-different-html","102","897660","0.0-3.0-99.0","","6738-3","""dejected""","""gayagaya.wav""","191","noisy","RI","different","0","D","dejected","Y","39"
"","2964","same-different-html","103","903629","0.0-3.0-100.0","","6738-3","""resolute""","""mushimushi.wav""","90","humid","RI","different","1","D","resolute","Y","40"
"","3101","same-different-html","104","909733","0.0-3.0-101.0","","6738-3","""stupid""","""bakabaka.wav""","191","stupid","RNAdj","same","1","T","stupid","Y","41"
"","2873","same-different-html","105","915613","0.0-3.0-102.0","","6738-3","""worn out""","""boroboro.wav""","191","worn out","RI","same","1","T","worn out","Y","42"
"","3220","same-different-html","106","921839","0.0-3.0-103.0","","6738-3","""impossible""","""murimuri.wav""","191","impossible","RNAdj","same","1","T","impossible","Y","43"
"","2866","same-different-html","107","927708","0.0-3.0-104.0","","6738-3","""free""","""nopperi.wav""","90","smooth","NRI","different","1","D","free","Y","44"
"","2821","same-different-html","108","933533","0.0-3.0-105.0","","6738-3","""humid""","""pokapoka.wav""","90","gaping","RNRI","different","1","D","humid","Y","45"
"","2839","same-different-html","109","939381","0.0-3.0-106.0","","6738-3","""impossible""","""yura.wav""","90","wobbly","SRI","different","1","D","impossible","Y","46"
"","3006","same-different-html","110","945389","0.0-3.0-107.0","","6738-3","""free""","""hima.wav""","191","free","NAdj","same","1","T","free","Y","47"
"","4829","same-different-html","111","953221","0.0-3.0-108.0","","6738-3","""pure""","""muku.wav""","90","pure","NAdj","same","0","T","pure","Y","48"
"[{""page_index"":0,""viewing_time"":30144}]","30144","instructions","112","984367","0.0-3.0-109.0","","","","","","","","","","","","",""
