"view_history","rt","trial_type","trial_index","time_elapsed","internal_node_id","responses","Id","word","sound","key_press","TrueMeaning","WordType","answer","correct","TrialType","TargetMeaning","LegalTrial","trialNum"
"[{""page_index"":0,""viewing_time"":3391}]","3392","instructions","0","3394","0.0-0.0","","","","","","","","","","","","",""
"[{""page_index"":0,""viewing_time"":938},{""page_index"":1,""viewing_time"":2055},{""page_index"":2,""viewing_time"":1580},{""page_index"":3,""viewing_time"":3112},{""page_index"":4,""viewing_time"":105379}]","113064","instructions","1","116459","0.0-1.0","","","","","","","","","","","","",""
"","13334","survey-multi-choice","2","129817","0.0-2.0","{""Q0"":""Yes"",""Q1"":""Yes"",""Q2"":""Yes"",""Q3"":""Yes"",""Q4"":""Yes""}","","","","","","","","","","","",""
"[{""page_index"":0,""viewing_time"":5662},{""page_index"":1,""viewing_time"":2476}]","8138","instructions","3","137956","0.0-3.0-0.0","","","","","","","","","","","","",""
"","3360","same-different-html-trial","4","147338","0.0-3.0-1.0","","0","""sushi""","""prc_sushi.wav""","32","","","","","","","",""
"[{""page_index"":0,""viewing_time"":2252}]","2253","instructions","5","150592","0.0-3.0-2.0","","","","","","","","","","","","",""
"","1140","same-different-html","6","153739","0.0-3.0-3.0","","0","""sushi""","""prc_sushi.wav""","90","","","same","0","","","0",""
"[{""page_index"":0,""viewing_time"":3107}]","3107","instructions","7","157847","0.0-3.0-4.0","","","","","","","","","","","","",""
"","1712","same-different-html","8","161563","0.0-3.0-5.0","","0","""cat""","""prc_sushi.wav""","191","","","different","0","","","0",""
"[{""page_index"":0,""viewing_time"":2233},{""page_index"":1,""viewing_time"":1359}]","3593","instructions","9","166157","0.0-3.0-6.0","","","","","","","","","","","","",""
"","2802","same-different-html-trial","10","174971","0.0-3.0-7.0","","0","""thank you""","""prc_arigato.wav""","32","","","","","","","",""
"[{""page_index"":0,""viewing_time"":2278}]","2278","instructions","11","178252","0.0-3.0-8.0","","","","","","","","","","","","",""
"","939","same-different-html","12","181197","0.0-3.0-9.0","","0","""thank you""","""prc_arigato.wav""","90","","","same","0","","","0",""
"","1247","same-different-html","13","185452","0.0-3.0-10.0","","0","""cat""","""prc_arigato.wav""","191","","","different","0","","","0",""
"[{""page_index"":0,""viewing_time"":2496},{""page_index"":1,""viewing_time"":7792}]","10289","instructions","14","196743","0.0-3.0-11.0","","","","","","","","","","","","",""
"","1660","same-different-html-trial","15","204411","0.0-3.0-12.0","","8795-9","""sloppy""","""zatsuzatsu.wav""","32","sloppy","RNAdj","","","","","","1"
"","1663","same-different-html-trial","16","213083","0.0-3.0-13.0","","8795-9","""messy""","""gochagocha.wav""","32","messy","RI","","","","","","2"
"","439","same-different-html-trial","17","220538","0.0-3.0-14.0","","8795-9","""chatty""","""bera.wav""","32","chatty","SRI","","","","","","3"
"","1243","same-different-html-trial","18","228795","0.0-3.0-15.0","","8795-9","""deficient""","""fubi.wav""","32","deficient","NAdj","","","","","","4"
"","2465","same-different-html-trial","19","238266","0.0-3.0-16.0","","8795-9","""offended""","""kachinkachin.wav""","32","offended","RNRI","","","","","","5"
"","415","same-different-html-trial","20","245691","0.0-3.0-17.0","","8795-9","""exact""","""kakkiri.wav""","32","exact","NRI","","","","","","6"
"","1483","same-different-html-trial","21","254186","0.0-3.0-18.0","","8795-9","""smooth""","""nopperinopperi.wav""","32","smooth","RNRI","","","","","","7"
"","1213","same-different-html-trial","22","262412","0.0-3.0-19.0","","8795-9","""noisy""","""gayagaya.wav""","32","noisy","RI","","","","","","8"
"","673","same-different-html-trial","23","270092","0.0-3.0-20.0","","8795-9","""rash""","""mucha.wav""","32","rash","NAdj","","","","","","9"
"","2698","same-different-html-trial","24","279803","0.0-3.0-21.0","","8795-9","""subdued""","""jimijimi.wav""","32","subdued","RNAdj","","","","","","10"
"","2942","same-different-html-trial","25","289755","0.0-3.0-22.0","","8795-9","""agitated""","""hiku.wav""","32","agitated","SRI","","","","","","11"
"","1500","same-different-html-trial","26","298266","0.0-3.0-23.0","","8795-9","""chubby""","""bukubuku.wav""","32","chubby","RI","","","","","","12"
"","1355","same-different-html-trial","27","306652","0.0-3.0-24.0","","8795-9","""sturdy""","""gashigashi.wav""","32","sturdy","RNRI","","","","","","13"
"","2206","same-different-html-trial","28","315867","0.0-3.0-25.0","","8795-9","""rude""","""zukezuke.wav""","32","rude","RI","","","","","","14"
"","1116","same-different-html-trial","29","323995","0.0-3.0-26.0","","8795-9","""disadvantaged""","""furi.wav""","32","disadvantaged","NAdj","","","","","","15"
"","868","same-different-html-trial","30","331883","0.0-3.0-27.0","","8795-9","""supple""","""shinnarishinnari.wav""","32","supple","RNRI","","","","","","16"
"","1213","same-different-html-trial","31","340107","0.0-3.0-28.0","","8795-9","""stiff""","""gowa.wav""","32","stiff","SRI","","","","","","17"
"","1641","same-different-html-trial","32","348762","0.0-3.0-29.0","","8795-9","""fragile""","""yawa.wav""","32","fragile","NAdj","","","","","","18"
"","3233","same-different-html-trial","33","359006","0.0-3.0-30.0","","8795-9","""impossible""","""murimuri.wav""","32","impossible","RNAdj","","","","","","19"
"","2998","same-different-html-trial","34","369067","0.0-3.0-31.0","","8795-9","""sullen""","""musu.wav""","32","sullen","NRI","","","","","","20"
"","1502","same-different-html-trial","35","377578","0.0-3.0-32.0","","8795-9","""excessive""","""kadokado.wav""","32","excessive","RNAdj","","","","","","21"
"","2398","same-different-html-trial","36","386986","0.0-3.0-33.0","","8795-9","""gaping""","""poka.wav""","32","gaping","NRI","","","","","","22"
"","846","same-different-html-trial","37","394845","0.0-3.0-34.0","","8795-9","""crowded""","""bisshiri.wav""","32","crowded","NRI","","","","","","23"
"","1005","same-different-html-trial","38","402858","0.0-3.0-35.0","","8795-9","""shivering""","""buru.wav""","32","shivering","SRI","","","","","","24"
"","1856","same-different-html-trial","39","411722","0.0-3.0-36.0","","8795-9","""offended""","""kachinkachin.wav""","32","offended","RNRI","","","","","","25"
"","1312","same-different-html-trial","40","420043","0.0-3.0-37.0","","8795-9","""messy""","""gochagocha.wav""","32","messy","RI","","","","","","26"
"","766","same-different-html-trial","41","427819","0.0-3.0-38.0","","8795-9","""sturdy""","""gashigashi.wav""","32","sturdy","RNRI","","","","","","27"
"","2778","same-different-html-trial","42","437611","0.0-3.0-39.0","","8795-9","""exact""","""kakkiri.wav""","32","exact","NRI","","","","","","28"
"","1036","same-different-html-trial","43","445658","0.0-3.0-40.0","","8795-9","""shivering""","""buru.wav""","32","shivering","SRI","","","","","","29"
"","1083","same-different-html-trial","44","453756","0.0-3.0-41.0","","8795-9","""stiff""","""gowa.wav""","32","stiff","SRI","","","","","","30"
"","1599","same-different-html-trial","45","462363","0.0-3.0-42.0","","8795-9","""supple""","""shinnarishinnari.wav""","32","supple","RNRI","","","","","","31"
"","962","same-different-html-trial","46","470330","0.0-3.0-43.0","","8795-9","""chatty""","""bera.wav""","32","chatty","SRI","","","","","","32"
"","1841","same-different-html-trial","47","479177","0.0-3.0-44.0","","8795-9","""agitated""","""hiku.wav""","32","agitated","SRI","","","","","","33"
"","921","same-different-html-trial","48","487116","0.0-3.0-45.0","","8795-9","""crowded""","""bisshiri.wav""","32","crowded","NRI","","","","","","34"
"","1241","same-different-html-trial","49","495371","0.0-3.0-46.0","","8795-9","""impossible""","""murimuri.wav""","32","impossible","RNAdj","","","","","","35"
"","2614","same-different-html-trial","50","504987","0.0-3.0-47.0","","8795-9","""fragile""","""yawa.wav""","32","fragile","NAdj","","","","","","36"
"","1449","same-different-html-trial","51","513450","0.0-3.0-48.0","","8795-9","""sloppy""","""zatsuzatsu.wav""","32","sloppy","RNAdj","","","","","","37"
"","1137","same-different-html-trial","52","521596","0.0-3.0-49.0","","8795-9","""sullen""","""musu.wav""","32","sullen","NRI","","","","","","38"
"","1229","same-different-html-trial","53","529836","0.0-3.0-50.0","","8795-9","""gaping""","""poka.wav""","32","gaping","NRI","","","","","","39"
"","1713","same-different-html-trial","54","538557","0.0-3.0-51.0","","8795-9","""excessive""","""kadokado.wav""","32","excessive","RNAdj","","","","","","40"
"","1408","same-different-html-trial","55","546969","0.0-3.0-52.0","","8795-9","""chubby""","""bukubuku.wav""","32","chubby","RI","","","","","","41"
"","1146","same-different-html-trial","56","555130","0.0-3.0-53.0","","8795-9","""disadvantaged""","""furi.wav""","32","disadvantaged","NAdj","","","","","","42"
"","1514","same-different-html-trial","57","563658","0.0-3.0-54.0","","8795-9","""subdued""","""jimijimi.wav""","32","subdued","RNAdj","","","","","","43"
"","1662","same-different-html-trial","58","572330","0.0-3.0-55.0","","8795-9","""smooth""","""nopperinopperi.wav""","32","smooth","RNRI","","","","","","44"
"","1137","same-different-html-trial","59","580474","0.0-3.0-56.0","","8795-9","""noisy""","""gayagaya.wav""","32","noisy","RI","","","","","","45"
"","1133","same-different-html-trial","60","588619","0.0-3.0-57.0","","8795-9","""deficient""","""fubi.wav""","32","deficient","NAdj","","","","","","46"
"","926","same-different-html-trial","61","596554","0.0-3.0-58.0","","8795-9","""rash""","""mucha.wav""","32","rash","NAdj","","","","","","47"
"","1325","same-different-html-trial","62","604890","0.0-3.0-59.0","","8795-9","""rude""","""zukezuke.wav""","32","rude","RI","","","","","","48"
"[{""page_index"":0,""viewing_time"":16378}]","16379","instructions","63","622270","0.0-3.0-60.0","","","","","","","","","","","","",""
"","3320","same-different-html","64","627596","0.0-3.0-61.0","","8795-9","""sturdy""","""kakkiri.wav""","90","exact","NRI","different","1","D","sturdy","Y","1"
"","2785","same-different-html","65","633387","0.0-3.0-62.0","","8795-9","""stiff""","""gowa.wav""","191","stiff","SRI","same","1","T","stiff","Y","2"
"","2738","same-different-html","66","639131","0.0-3.0-63.0","","8795-9","""chubby""","""bukubuku.wav""","191","chubby","RI","same","1","T","chubby","Y","3"
"","2515","same-different-html","67","644652","0.0-3.0-64.0","","8795-9","""sullen""","""musu.wav""","90","sullen","NRI","same","0","T","sullen","Y","4"
"","2850","same-different-html","68","650507","0.0-3.0-65.0","","8795-9","""deficient""","""yawa.wav""","90","fragile","NAdj","different","1","D","deficient","Y","5"
"","3312","same-different-html","69","656827","0.0-3.0-66.0","","8795-9","""excessive""","""hiku.wav""","90","agitated","SRI","different","1","D","excessive","Y","6"
"","2785","same-different-html","70","662618","0.0-3.0-67.0","","8795-9","""exact""","""gashigashi.wav""","90","sturdy","RNRI","different","1","D","exact","Y","7"
"","2672","same-different-html","71","668298","0.0-3.0-68.0","","8795-9","""messy""","""gayagaya.wav""","191","noisy","RI","different","0","D","messy","Y","8"
"","2995","same-different-html","72","674298","0.0-3.0-69.0","","8795-9","""fragile""","""buru.wav""","90","shivering","SRI","different","1","D","fragile","Y","9"
"","2850","same-different-html","73","680155","0.0-3.0-70.0","","8795-9","""subdued""","""jimijimi.wav""","191","subdued","RNAdj","same","1","T","subdued","Y","10"
"","4242","same-different-html","74","687407","0.0-3.0-71.0","","8795-9","""disadvantaged""","""kachinkachin.wav""","90","offended","RNRI","different","1","D","disadvantaged","Y","11"
"","2786","same-different-html","75","693195","0.0-3.0-72.0","","8795-9","""smooth""","""musu.wav""","191","sullen","NRI","different","0","D","smooth","Y","12"
"","2817","same-different-html","76","699019","0.0-3.0-73.0","","8795-9","""shivering""","""buru.wav""","191","shivering","SRI","same","1","T","shivering","Y","13"
"","3440","same-different-html","77","705466","0.0-3.0-74.0","","8795-9","""crowded""","""murimuri.wav""","90","impossible","RNAdj","different","1","D","crowded","Y","14"
"","2802","same-different-html","78","711274","0.0-3.0-75.0","","8795-9","""sloppy""","""nopperinopperi.wav""","90","smooth","RNRI","different","1","D","sloppy","Y","15"
"","2832","same-different-html","79","717115","0.0-3.0-76.0","","8795-9","""gaping""","""poka.wav""","90","gaping","NRI","same","0","T","gaping","Y","16"
"","3268","same-different-html","80","723387","0.0-3.0-77.0","","8795-9","""subdued""","""shinnarishinnari.wav""","191","supple","RNRI","different","0","D","subdued","Y","17"
"","3542","same-different-html","81","729931","0.0-3.0-78.0","","8795-9","""noisy""","""bisshiri.wav""","191","crowded","NRI","different","0","D","noisy","Y","18"
"","5395","same-different-html","82","738331","0.0-3.0-79.0","","8795-9","""impossible""","""gowa.wav""","90","stiff","SRI","different","1","D","impossible","Y","19"
"","2751","same-different-html","83","744092","0.0-3.0-80.0","","8795-9","""smooth""","""nopperinopperi.wav""","90","smooth","RNRI","same","0","T","smooth","Y","20"
"","2897","same-different-html","84","749995","0.0-3.0-81.0","","8795-9","""rash""","""mucha.wav""","191","rash","NAdj","same","1","T","rash","Y","21"
"","2896","same-different-html","85","755898","0.0-3.0-82.0","","8795-9","""messy""","""gochagocha.wav""","191","messy","RI","same","1","T","messy","Y","22"
"","2578","same-different-html","86","761482","0.0-3.0-83.0","","8795-9","""gaping""","""zukezuke.wav""","191","rude","RI","different","0","D","gaping","Y","23"
"","4546","same-different-html","87","769035","0.0-3.0-84.0","","8795-9","""noisy""","""gayagaya.wav""","90","noisy","RI","same","0","T","noisy","Y","24"
"","2915","same-different-html","88","774954","0.0-3.0-85.0","","8795-9","""agitated""","""hiku.wav""","191","agitated","SRI","same","1","T","agitated","Y","25"
"","2803","same-different-html","89","780763","0.0-3.0-86.0","","8795-9","""sullen""","""jimijimi.wav""","90","subdued","RNAdj","different","1","D","sullen","Y","26"
"","2307","same-different-html","90","786075","0.0-3.0-87.0","","8795-9","""chatty""","""bera.wav""","191","chatty","SRI","same","1","T","chatty","Y","27"
"","2548","same-different-html","91","791627","0.0-3.0-88.0","","8795-9","""chatty""","""bukubuku.wav""","90","chubby","RI","different","1","D","chatty","Y","28"
"","3091","same-different-html","92","797723","0.0-3.0-89.0","","8795-9","""exact""","""kakkiri.wav""","90","exact","NRI","same","0","T","exact","Y","29"
"","2163","same-different-html","93","802891","0.0-3.0-90.0","","8795-9","""sturdy""","""gashigashi.wav""","90","sturdy","RNRI","same","0","T","sturdy","Y","30"
"","1858","same-different-html","94","807755","0.0-3.0-91.0","","8795-9","""rude""","""zukezuke.wav""","191","rude","RI","same","1","T","rude","Y","31"
"","1956","same-different-html","95","812716","0.0-3.0-92.0","","8795-9","""agitated""","""fubi.wav""","90","deficient","NAdj","different","1","D","agitated","Y","32"
"","2368","same-different-html","96","818093","0.0-3.0-93.0","","8795-9","""rash""","""furi.wav""","90","disadvantaged","NAdj","different","1","D","rash","Y","33"
"","1889","same-different-html","97","822988","0.0-3.0-94.0","","8795-9","""impossible""","""murimuri.wav""","90","impossible","RNAdj","same","0","T","impossible","Y","34"
"","2654","same-different-html","98","828650","0.0-3.0-95.0","","8795-9","""offended""","""kachinkachin.wav""","191","offended","RNRI","same","1","T","offended","Y","35"
"","3149","same-different-html","99","834811","0.0-3.0-96.0","","8795-9","""offended""","""zatsuzatsu.wav""","90","sloppy","RNAdj","different","1","D","offended","Y","36"
"","1603","same-different-html","100","839419","0.0-3.0-97.0","","8795-9","""shivering""","""gochagocha.wav""","90","messy","RI","different","1","D","shivering","Y","37"
"","2803","same-different-html","101","845227","0.0-3.0-98.0","","8795-9","""excessive""","""kadokado.wav""","191","excessive","RNAdj","same","1","T","excessive","Y","38"
"","1631","same-different-html","102","849868","0.0-3.0-99.0","","8795-9","""disadvantaged""","""furi.wav""","191","disadvantaged","NAdj","same","1","T","disadvantaged","Y","39"
"","1554","same-different-html","103","854427","0.0-3.0-100.0","","8795-9","""sloppy""","""zatsuzatsu.wav""","191","sloppy","RNAdj","same","1","T","sloppy","Y","40"
"","1771","same-different-html","104","859212","0.0-3.0-101.0","","8795-9","""stiff""","""kadokado.wav""","90","excessive","RNAdj","different","1","D","stiff","Y","41"
"","2017","same-different-html","105","864235","0.0-3.0-102.0","","8795-9","""chubby""","""poka.wav""","90","gaping","NRI","different","1","D","chubby","Y","42"
"","1843","same-different-html","106","869085","0.0-3.0-103.0","","8795-9","""deficient""","""fubi.wav""","90","deficient","NAdj","same","0","T","deficient","Y","43"
"","1634","same-different-html","107","873723","0.0-3.0-104.0","","8795-9","""supple""","""bera.wav""","191","chatty","SRI","different","0","D","supple","Y","44"
"","2082","same-different-html","108","878812","0.0-3.0-105.0","","8795-9","""crowded""","""bisshiri.wav""","191","crowded","NRI","same","1","T","crowded","Y","45"
"","3634","same-different-html","109","885451","0.0-3.0-106.0","","8795-9","""supple""","""shinnarishinnari.wav""","191","supple","RNRI","same","1","T","supple","Y","46"
"","2549","same-different-html","110","891003","0.0-3.0-107.0","","8795-9","""fragile""","""yawa.wav""","191","fragile","NAdj","same","1","T","fragile","Y","47"
"","3092","same-different-html","111","897100","0.0-3.0-108.0","","8795-9","""rude""","""mucha.wav""","191","rash","NAdj","different","0","D","rude","Y","48"
"[{""page_index"":0,""viewing_time"":43462}]","43462","instructions","112","941563","0.0-3.0-109.0","","","","","","","","","","","","",""
