"view_history","rt","trial_type","trial_index","time_elapsed","internal_node_id","responses","Id","word","sound","key_press","TrueMeaning","WordType","answer","correct","TrialType","TargetMeaning","LegalTrial","trialNum"
"[{""page_index"":0,""viewing_time"":21630}]","21632","instructions","0","21637","0.0-0.0","","","","","","","","","","","","",""
"[{""page_index"":0,""viewing_time"":4715},{""page_index"":1,""viewing_time"":24569},{""page_index"":2,""viewing_time"":39380},{""page_index"":3,""viewing_time"":40386},{""page_index"":4,""viewing_time"":111700}]","220751","instructions","1","242392","0.0-1.0","","","","","","","","","","","","",""
"","55421","survey-multi-choice","2","297834","0.0-2.0","{""Q0"":""Yes"",""Q1"":""Yes"",""Q2"":""Yes"",""Q3"":""Yes"",""Q4"":""Yes""}","","","","","","","","","","","",""
"[{""page_index"":0,""viewing_time"":3259},{""page_index"":1,""viewing_time"":24909}]","28169","instructions","3","326004","0.0-3.0-0.0","","","","","","","","","","","","",""
"","16288","same-different-html-trial","4","348348","0.0-3.0-1.0","","0","""sushi""","""prc_sushi.wav""","32","","","","","","","",""
"[{""page_index"":0,""viewing_time"":44951}]","44952","instructions","5","394301","0.0-3.0-2.0","","","","","","","","","","","","",""
"","26708","same-different-html","6","423034","0.0-3.0-3.0","","0","""sushi""","""prc_sushi.wav""","191","","","same","1","","","0",""
"[{""page_index"":0,""viewing_time"":8596}]","8596","instructions","7","432632","0.0-3.0-4.0","","","","","","","","","","","","",""
"","15449","same-different-html","8","450086","0.0-3.0-5.0","","0","""cat""","""prc_sushi.wav""","90","","","different","1","","","0",""
"[{""page_index"":0,""viewing_time"":7542},{""page_index"":1,""viewing_time"":3178}]","10721","instructions","9","461808","0.0-3.0-6.0","","","","","","","","","","","","",""
"","4949","same-different-html-trial","10","472818","0.0-3.0-7.0","","0","""thank you""","""prc_arigato.wav""","32","","","","","","","",""
"[{""page_index"":0,""viewing_time"":8584}]","8585","instructions","11","482403","0.0-3.0-8.0","","","","","","","","","","","","",""
"","4807","same-different-html","12","489214","0.0-3.0-9.0","","0","""thank you""","""prc_arigato.wav""","90","","","same","0","","","0",""
"","3217","same-different-html","13","495443","0.0-3.0-10.0","","0","""cat""","""prc_arigato.wav""","90","","","different","1","","","0",""
"[{""page_index"":0,""viewing_time"":2426},{""page_index"":1,""viewing_time"":87685}]","90112","instructions","14","586556","0.0-3.0-11.0","","","","","","","","","","","","",""
"","2920","same-different-html-trial","15","595486","0.0-3.0-12.0","","9464-7","""steaming""","""hokahoka.wav""","32","steaming","RI","","","","","","1"
"","1650","same-different-html-trial","16","604199","0.0-3.0-13.0","","9464-7","""clear""","""kukkiri.wav""","32","clear","NRI","","","","","","2"
"","3424","same-different-html-trial","17","614740","0.0-3.0-14.0","","9464-7","""sullen""","""musu.wav""","32","sullen","NRI","","","","","","3"
"","3411","same-different-html-trial","18","625180","0.0-3.0-15.0","","9464-7","""subdued""","""jimi.wav""","32","subdued","NAdj","","","","","","4"
"","1224","same-different-html-trial","19","633443","0.0-3.0-16.0","","9464-7","""supple""","""shinnarishinnari.wav""","32","supple","RNRI","","","","","","5"
"","6227","same-different-html-trial","20","646696","0.0-3.0-17.0","","9464-7","""agitated""","""hikuhiku.wav""","32","agitated","RI","","","","","","6"
"","2136","same-different-html-trial","21","655859","0.0-3.0-18.0","","9464-7","""humid""","""mushimushi.wav""","32","humid","RI","","","","","","7"
"","3247","same-different-html-trial","22","666113","0.0-3.0-19.0","","9464-7","""stupid""","""baka.wav""","32","stupid","NAdj","","","","","","8"
"","2523","same-different-html-trial","23","675673","0.0-3.0-20.0","","9464-7","""comfortable""","""raku.wav""","32","comfortable","NAdj","","","","","","9"
"","2782","same-different-html-trial","24","685553","0.0-3.0-21.0","","9464-7","""deficient""","""fubifubi.wav""","32","deficient","RNAdj","","","","","","10"
"","2369","same-different-html-trial","25","694935","0.0-3.0-22.0","","9464-7","""vulgar""","""zokuzoku.wav""","32","vulgar","RNAdj","","","","","","11"
"","2294","same-different-html-trial","26","704311","0.0-3.0-23.0","","9464-7","""offended""","""kachinkachin.wav""","32","offended","RNRI","","","","","","12"
"","1956","same-different-html-trial","27","713316","0.0-3.0-24.0","","9464-7","""crowded""","""bisshiri.wav""","32","crowded","NRI","","","","","","13"
"","3596","same-different-html-trial","28","723913","0.0-3.0-25.0","","9464-7","""chatty""","""bera.wav""","32","chatty","SRI","","","","","","14"
"","2325","same-different-html-trial","29","733278","0.0-3.0-26.0","","9464-7","""fat""","""debudebu.wav""","32","fat","RI","","","","","","15"
"","3861","same-different-html-trial","30","744158","0.0-3.0-27.0","","9464-7","""hesitant""","""moji.wav""","32","hesitant","SRI","","","","","","16"
"","2608","same-different-html-trial","31","753782","0.0-3.0-28.0","","9464-7","""exact""","""kakkirikakkiri.wav""","32","exact","RNRI","","","","","","17"
"","1897","same-different-html-trial","32","762688","0.0-3.0-29.0","","9464-7","""useless""","""dame.wav""","32","useless","NAdj","","","","","","18"
"","3949","same-different-html-trial","33","773660","0.0-3.0-30.0","","9464-7","""noisy""","""gaya.wav""","32","noisy","SRI","","","","","","19"
"","1888","same-different-html-trial","34","782596","0.0-3.0-31.0","","9464-7","""gaudy""","""kabikabi.wav""","32","gaudy","RNAdj","","","","","","20"
"","2888","same-different-html-trial","35","792491","0.0-3.0-32.0","","9464-7","""perfect""","""batchiri.wav""","32","perfect","NRI","","","","","","21"
"","3534","same-different-html-trial","36","803033","0.0-3.0-33.0","","9464-7","""sudden""","""patapata.wav""","32","sudden","RNRI","","","","","","22"
"","4160","same-different-html-trial","37","814224","0.0-3.0-34.0","","9464-7","""rude""","""zuke.wav""","32","rude","SRI","","","","","","23"
"","1991","same-different-html-trial","38","823225","0.0-3.0-35.0","","9464-7","""sloppy""","""zatsuzatsu.wav""","32","sloppy","RNAdj","","","","","","24"
"","5312","same-different-html-trial","39","835559","0.0-3.0-36.0","","9464-7","""sullen""","""musu.wav""","32","sullen","NRI","","","","","","25"
"","1542","same-different-html-trial","40","844109","0.0-3.0-37.0","","9464-7","""crowded""","""bisshiri.wav""","32","crowded","NRI","","","","","","26"
"","1639","same-different-html-trial","41","852755","0.0-3.0-38.0","","9464-7","""steaming""","""hokahoka.wav""","32","steaming","RI","","","","","","27"
"","1561","same-different-html-trial","42","861364","0.0-3.0-39.0","","9464-7","""noisy""","""gaya.wav""","32","noisy","SRI","","","","","","28"
"","2411","same-different-html-trial","43","870858","0.0-3.0-40.0","","9464-7","""clear""","""kukkiri.wav""","32","clear","NRI","","","","","","29"
"","3291","same-different-html-trial","44","881153","0.0-3.0-41.0","","9464-7","""stupid""","""baka.wav""","32","stupid","NAdj","","","","","","30"
"","4875","same-different-html-trial","45","893048","0.0-3.0-42.0","","9464-7","""rude""","""zuke.wav""","32","rude","SRI","","","","","","31"
"","3116","same-different-html-trial","46","903192","0.0-3.0-43.0","","9464-7","""agitated""","""hikuhiku.wav""","32","agitated","RI","","","","","","32"
"","11731","same-different-html-trial","47","921927","0.0-3.0-44.0","","9464-7","""sudden""","""patapata.wav""","32","sudden","RNRI","","","","","","33"
"","5789","same-different-html-trial","48","934726","0.0-3.0-45.0","","9464-7","""chatty""","""bera.wav""","32","chatty","SRI","","","","","","34"
"","3047","same-different-html-trial","49","944779","0.0-3.0-46.0","","9464-7","""hesitant""","""moji.wav""","32","hesitant","SRI","","","","","","35"
"","5464","same-different-html-trial","50","957248","0.0-3.0-47.0","","9464-7","""sloppy""","""zatsuzatsu.wav""","32","sloppy","RNAdj","","","","","","36"
"","1989","same-different-html-trial","51","966290","0.0-3.0-48.0","","9464-7","""useless""","""dame.wav""","32","useless","NAdj","","","","","","37"
"","3203","same-different-html-trial","52","976561","0.0-3.0-49.0","","9464-7","""supple""","""shinnarishinnari.wav""","32","supple","RNRI","","","","","","38"
"","1457","same-different-html-trial","53","985048","0.0-3.0-50.0","","9464-7","""subdued""","""jimi.wav""","32","subdued","NAdj","","","","","","39"
"","1767","same-different-html-trial","54","993911","0.0-3.0-51.0","","9464-7","""fat""","""debudebu.wav""","32","fat","RI","","","","","","40"
"","14674","same-different-html-trial","55","1015605","0.0-3.0-52.0","","9464-7","""vulgar""","""zokuzoku.wav""","32","vulgar","RNAdj","","","","","","41"
"","2360","same-different-html-trial","56","1024973","0.0-3.0-53.0","","9464-7","""humid""","""mushimushi.wav""","32","humid","RI","","","","","","42"
"","1939","same-different-html-trial","57","1033920","0.0-3.0-54.0","","9464-7","""deficient""","""fubifubi.wav""","32","deficient","RNAdj","","","","","","43"
"","1846","same-different-html-trial","58","1042943","0.0-3.0-55.0","","9464-7","""gaudy""","""kabikabi.wav""","32","gaudy","RNAdj","","","","","","44"
"","3215","same-different-html-trial","59","1053211","0.0-3.0-56.0","","9464-7","""exact""","""kakkirikakkiri.wav""","32","exact","RNRI","","","","","","45"
"","5215","same-different-html-trial","60","1065433","0.0-3.0-57.0","","9464-7","""comfortable""","""raku.wav""","32","comfortable","NAdj","","","","","","46"
"","1786","same-different-html-trial","61","1074225","0.0-3.0-58.0","","9464-7","""perfect""","""batchiri.wav""","32","perfect","NRI","","","","","","47"
"","2706","same-different-html-trial","62","1083942","0.0-3.0-59.0","","9464-7","""offended""","""kachinkachin.wav""","32","offended","RNRI","","","","","","48"
"[{""page_index"":0,""viewing_time"":15803}]","15804","instructions","63","1100755","0.0-3.0-60.0","","","","","","","","","","","","",""
"","4072","same-different-html","64","1106916","0.0-3.0-61.0","","9464-7","""clear""","""raku.wav""","90","comfortable","NAdj","different","1","D","clear","Y","1"
"","2351","same-different-html","65","1112272","0.0-3.0-62.0","","9464-7","""steaming""","""kukkiri.wav""","90","clear","NRI","different","1","D","steaming","Y","2"
"","2158","same-different-html","66","1117432","0.0-3.0-63.0","","9464-7","""supple""","""kabikabi.wav""","90","gaudy","RNAdj","different","1","D","supple","Y","3"
"","13786","same-different-html","67","1134224","0.0-3.0-64.0","","9464-7","""noisy""","""hokahoka.wav""","90","steaming","RI","different","1","D","noisy","Y","4"
"","3228","same-different-html","68","1140454","0.0-3.0-65.0","","9464-7","""crowded""","""bisshiri.wav""","191","crowded","NRI","same","1","T","crowded","Y","5"
"","3953","same-different-html","69","1147412","0.0-3.0-66.0","","9464-7","""stupid""","""zuke.wav""","90","rude","SRI","different","1","D","stupid","Y","6"
"","2031","same-different-html","70","1152445","0.0-3.0-67.0","","9464-7","""sloppy""","""zatsuzatsu.wav""","90","sloppy","RNAdj","same","0","T","sloppy","Y","7"
"","3083","same-different-html","71","1158557","0.0-3.0-68.0","","9464-7","""perfect""","""batchiri.wav""","191","perfect","NRI","same","1","T","perfect","Y","8"
"","3136","same-different-html","72","1164733","0.0-3.0-69.0","","9464-7","""sudden""","""dame.wav""","90","useless","NAdj","different","1","D","sudden","Y","9"
"","4452","same-different-html","73","1172190","0.0-3.0-70.0","","9464-7","""offended""","""kachinkachin.wav""","191","offended","RNRI","same","1","T","offended","Y","10"
"","1980","same-different-html","74","1177208","0.0-3.0-71.0","","9464-7","""hesitant""","""patapata.wav""","90","sudden","RNRI","different","1","D","hesitant","Y","11"
"","2078","same-different-html","75","1182322","0.0-3.0-72.0","","9464-7","""offended""","""musu.wav""","90","sullen","NRI","different","1","D","offended","Y","12"
"","3159","same-different-html","76","1188514","0.0-3.0-73.0","","9464-7","""chatty""","""bera.wav""","90","chatty","SRI","same","0","T","chatty","Y","13"
"","2997","same-different-html","77","1194515","0.0-3.0-74.0","","9464-7","""exact""","""kachinkachin.wav""","90","offended","RNRI","different","1","D","exact","Y","14"
"","2481","same-different-html","78","1200001","0.0-3.0-75.0","","9464-7","""humid""","""mushimushi.wav""","191","humid","RI","same","1","T","humid","Y","15"
"","2971","same-different-html","79","1205976","0.0-3.0-76.0","","9464-7","""gaudy""","""kabikabi.wav""","191","gaudy","RNAdj","same","1","T","gaudy","Y","16"
"","3338","same-different-html","80","1212391","0.0-3.0-77.0","","9464-7","""sullen""","""zokuzoku.wav""","90","vulgar","RNAdj","different","1","D","sullen","Y","17"
"","2841","same-different-html","81","1218239","0.0-3.0-78.0","","9464-7","""fat""","""shinnarishinnari.wav""","90","supple","RNRI","different","1","D","fat","Y","18"
"","2388","same-different-html","82","1223630","0.0-3.0-79.0","","9464-7","""supple""","""shinnarishinnari.wav""","191","supple","RNRI","same","1","T","supple","Y","19"
"","3289","same-different-html","83","1229941","0.0-3.0-80.0","","9464-7","""agitated""","""hikuhiku.wav""","90","agitated","RI","same","0","T","agitated","Y","20"
"","2638","same-different-html","84","1235658","0.0-3.0-81.0","","9464-7","""subdued""","""bisshiri.wav""","90","crowded","NRI","different","1","D","subdued","Y","21"
"","1800","same-different-html","85","1240461","0.0-3.0-82.0","","9464-7","""gaudy""","""mushimushi.wav""","90","humid","RI","different","1","D","gaudy","Y","22"
"","1940","same-different-html","86","1245416","0.0-3.0-83.0","","9464-7","""sullen""","""musu.wav""","90","sullen","NRI","same","0","T","sullen","Y","23"
"","2048","same-different-html","87","1250553","0.0-3.0-84.0","","9464-7","""steaming""","""hokahoka.wav""","191","steaming","RI","same","1","T","steaming","Y","24"
"","2151","same-different-html","88","1255714","0.0-3.0-85.0","","9464-7","""perfect""","""moji.wav""","90","hesitant","SRI","different","1","D","perfect","Y","25"
"","2090","same-different-html","89","1260863","0.0-3.0-86.0","","9464-7","""clear""","""kukkiri.wav""","191","clear","NRI","same","1","T","clear","Y","26"
"","2886","same-different-html","90","1266752","0.0-3.0-87.0","","9464-7","""sloppy""","""debudebu.wav""","90","fat","RI","different","1","D","sloppy","Y","27"
"","2497","same-different-html","91","1272252","0.0-3.0-88.0","","9464-7","""deficient""","""batchiri.wav""","90","perfect","NRI","different","1","D","deficient","Y","28"
"","3454","same-different-html","92","1278721","0.0-3.0-89.0","","9464-7","""comfortable""","""raku.wav""","191","comfortable","NAdj","same","1","T","comfortable","Y","29"
"","2202","same-different-html","93","1283958","0.0-3.0-90.0","","9464-7","""chatty""","""fubifubi.wav""","90","deficient","RNAdj","different","1","D","chatty","Y","30"
"","4380","same-different-html","94","1291341","0.0-3.0-91.0","","9464-7","""exact""","""kakkirikakkiri.wav""","191","exact","RNRI","same","1","T","exact","Y","31"
"","1771","same-different-html","95","1296116","0.0-3.0-92.0","","9464-7","""fat""","""debudebu.wav""","191","fat","RI","same","1","T","fat","Y","32"
"","4087","same-different-html","96","1303260","0.0-3.0-93.0","","9464-7","""noisy""","""gaya.wav""","191","noisy","SRI","same","1","T","noisy","Y","33"
"","3224","same-different-html","97","1309491","0.0-3.0-94.0","","9464-7","""useless""","""dame.wav""","191","useless","NAdj","same","1","T","useless","Y","34"
"","4435","same-different-html","98","1316930","0.0-3.0-95.0","","9464-7","""agitated""","""zatsuzatsu.wav""","191","sloppy","RNAdj","different","0","D","agitated","Y","35"
"","2475","same-different-html","99","1322465","0.0-3.0-96.0","","9464-7","""humid""","""kakkirikakkiri.wav""","90","exact","RNRI","different","1","D","humid","Y","36"
"","4089","same-different-html","100","1329577","0.0-3.0-97.0","","9464-7","""crowded""","""hikuhiku.wav""","90","agitated","RI","different","1","D","crowded","Y","37"
"","1884","same-different-html","101","1334464","0.0-3.0-98.0","","9464-7","""vulgar""","""jimi.wav""","90","subdued","NAdj","different","1","D","vulgar","Y","38"
"","2795","same-different-html","102","1340263","0.0-3.0-99.0","","9464-7","""hesitant""","""moji.wav""","191","hesitant","SRI","same","1","T","hesitant","Y","39"
"","1487","same-different-html","103","1344755","0.0-3.0-100.0","","9464-7","""deficient""","""fubifubi.wav""","90","deficient","RNAdj","same","0","T","deficient","Y","40"
"","1312","same-different-html","104","1349131","0.0-3.0-101.0","","9464-7","""subdued""","""jimi.wav""","191","subdued","NAdj","same","1","T","subdued","Y","41"
"","4161","same-different-html","105","1356337","0.0-3.0-102.0","","9464-7","""rude""","""zuke.wav""","90","rude","SRI","same","0","T","rude","Y","42"
"","2852","same-different-html","106","1362193","0.0-3.0-103.0","","9464-7","""sudden""","""patapata.wav""","191","sudden","RNRI","same","1","T","sudden","Y","43"
"","4212","same-different-html","107","1369407","0.0-3.0-104.0","","9464-7","""vulgar""","""zokuzoku.wav""","90","vulgar","RNAdj","same","0","T","vulgar","Y","44"
"","1965","same-different-html","108","1374409","0.0-3.0-105.0","","9464-7","""useless""","""gaya.wav""","90","noisy","SRI","different","1","D","useless","Y","45"
"","3288","same-different-html","109","1380759","0.0-3.0-106.0","","9464-7","""comfortable""","""bera.wav""","90","chatty","SRI","different","1","D","comfortable","Y","46"
"","1844","same-different-html","110","1385608","0.0-3.0-107.0","","9464-7","""rude""","""baka.wav""","90","stupid","NAdj","different","1","D","rude","Y","47"
"","1523","same-different-html","111","1390206","0.0-3.0-108.0","","9464-7","""stupid""","""baka.wav""","90","stupid","NAdj","same","0","T","stupid","Y","48"
"[{""page_index"":0,""viewing_time"":15895}]","15895","instructions","112","1407101","0.0-3.0-109.0","","","","","","","","","","","","",""
