"view_history","rt","trial_type","trial_index","time_elapsed","internal_node_id","responses","Id","word","sound","key_press","TrueMeaning","WordType","answer","correct","TrialType","TargetMeaning","LegalTrial","trialNum"
"[{""page_index"":0,""viewing_time"":44685}]","44686","instructions","0","44687","0.0-0.0","","","","","","","","","","","","",""
"[{""page_index"":0,""viewing_time"":1357},{""page_index"":1,""viewing_time"":1392},{""page_index"":2,""viewing_time"":1288},{""page_index"":3,""viewing_time"":529},{""page_index"":4,""viewing_time"":3775}]","8341","instructions","1","53029","0.0-1.0","","","","","","","","","","","","",""
"","21165","survey-multi-choice","2","74199","0.0-2.0","{""Q0"":""Yes"",""Q1"":""Yes"",""Q2"":""Yes"",""Q3"":""Yes"",""Q4"":""Yes""}","","","","","","","","","","","",""
"[{""page_index"":0,""viewing_time"":1302},{""page_index"":1,""viewing_time"":4232}]","5534","instructions","3","79734","0.0-3.0-0.0","","","","","","","","","","","","",""
"","2828","same-different-html-trial","4","88582","0.0-3.0-1.0","","0","""sushi""","""prc_sushi.wav""","32","","","","","","","",""
"[{""page_index"":0,""viewing_time"":5766}]","5766","instructions","5","95350","0.0-3.0-2.0","","","","","","","","","","","","",""
"","9175","same-different-html","6","106527","0.0-3.0-3.0","","0","""sushi""","""prc_sushi.wav""","191","","","same","1","","","0",""
"[{""page_index"":0,""viewing_time"":15684}]","15684","instructions","7","123214","0.0-3.0-4.0","","","","","","","","","","","","",""
"","3401","same-different-html","8","128621","0.0-3.0-5.0","","0","""cat""","""prc_sushi.wav""","90","","","different","1","","","0",""
"[{""page_index"":0,""viewing_time"":2414},{""page_index"":1,""viewing_time"":1334}]","3749","instructions","9","133373","0.0-3.0-6.0","","","","","","","","","","","","",""
"","2939","same-different-html-trial","10","142319","0.0-3.0-7.0","","0","""thank you""","""prc_arigato.wav""","32","","","","","","","",""
"[{""page_index"":0,""viewing_time"":4288}]","4288","instructions","11","147609","0.0-3.0-8.0","","","","","","","","","","","","",""
"","4039","same-different-html","12","153653","0.0-3.0-9.0","","0","""thank you""","""prc_arigato.wav""","191","","","same","1","","","0",""
"","1464","same-different-html","13","158121","0.0-3.0-10.0","","0","""cat""","""prc_arigato.wav""","90","","","different","1","","","0",""
"[{""page_index"":0,""viewing_time"":1358},{""page_index"":1,""viewing_time"":11372}]","12730","instructions","14","171853","0.0-3.0-11.0","","","","","","","","","","","","",""
"","3437","same-different-html-trial","15","181299","0.0-3.0-12.0","","3136-2","""supple""","""shinnarishinnari.wav""","32","supple","RNRI","","","","","","1"
"","2709","same-different-html-trial","16","191017","0.0-3.0-13.0","","3136-2","""stupid""","""bakabaka.wav""","32","stupid","RNAdj","","","","","","2"
"","3862","same-different-html-trial","17","201886","0.0-3.0-14.0","","3136-2","""fast asleep""","""gussurigussuri.wav""","32","fast asleep","RNRI","","","","","","3"
"","2023","same-different-html-trial","18","210916","0.0-3.0-15.0","","3136-2","""glossy""","""tsuyatsuya.wav""","32","glossy","RI","","","","","","4"
"","1974","same-different-html-trial","19","219900","0.0-3.0-16.0","","3136-2","""sloppy""","""zatsuzatsu.wav""","32","sloppy","RNAdj","","","","","","5"
"","1739","same-different-html-trial","20","228648","0.0-3.0-17.0","","3136-2","""excessive""","""kado.wav""","32","excessive","NAdj","","","","","","6"
"","2177","same-different-html-trial","21","237835","0.0-3.0-18.0","","3136-2","""hesitant""","""moji.wav""","32","hesitant","SRI","","","","","","7"
"","1881","same-different-html-trial","22","246726","0.0-3.0-19.0","","3136-2","""chubby""","""bukubuku.wav""","32","chubby","RI","","","","","","8"
"","1835","same-different-html-trial","23","255566","0.0-3.0-20.0","","3136-2","""steaming""","""hoka.wav""","32","steaming","SRI","","","","","","9"
"","782","same-different-html-trial","24","263362","0.0-3.0-21.0","","3136-2","""rare""","""mare.wav""","32","rare","NAdj","","","","","","10"
"","1969","same-different-html-trial","25","272339","0.0-3.0-22.0","","3136-2","""noisy""","""gayagaya.wav""","32","noisy","RI","","","","","","11"
"","1291","same-different-html-trial","26","280639","0.0-3.0-23.0","","3136-2","""vulgar""","""zoku.wav""","32","vulgar","NAdj","","","","","","12"
"","1532","same-different-html-trial","27","289180","0.0-3.0-24.0","","3136-2","""messy""","""gocha.wav""","32","messy","SRI","","","","","","13"
"","2364","same-different-html-trial","28","298574","0.0-3.0-25.0","","3136-2","""smooth""","""nopperi.wav""","32","smooth","NRI","","","","","","14"
"","2557","same-different-html-trial","29","308138","0.0-3.0-26.0","","3136-2","""resolute""","""bassari.wav""","32","resolute","NRI","","","","","","15"
"","2045","same-different-html-trial","30","317189","0.0-3.0-27.0","","3136-2","""harsh""","""koku.wav""","32","harsh","NAdj","","","","","","16"
"","2518","same-different-html-trial","31","326713","0.0-3.0-28.0","","3136-2","""nonchalantly""","""kerokero.wav""","32","nonchalantly","RNRI","","","","","","17"
"","2232","same-different-html-trial","32","335953","0.0-3.0-29.0","","3136-2","""sturdy""","""gashi.wav""","32","sturdy","NRI","","","","","","18"
"","2226","same-different-html-trial","33","345188","0.0-3.0-30.0","","3136-2","""gaping""","""pokapoka.wav""","32","gaping","RNRI","","","","","","19"
"","2290","same-different-html-trial","34","354488","0.0-3.0-31.0","","3136-2","""whispering""","""hisohiso.wav""","32","whispering","RI","","","","","","20"
"","2030","same-different-html-trial","35","363525","0.0-3.0-32.0","","3136-2","""deficient""","""fubifubi.wav""","32","deficient","RNAdj","","","","","","21"
"","1367","same-different-html-trial","36","371897","0.0-3.0-33.0","","3136-2","""worn out""","""boro.wav""","32","worn out","SRI","","","","","","22"
"","2175","same-different-html-trial","37","381081","0.0-3.0-34.0","","3136-2","""rash""","""muchamucha.wav""","32","rash","RNAdj","","","","","","23"
"","2789","same-different-html-trial","38","390883","0.0-3.0-35.0","","3136-2","""careful""","""jikkuri.wav""","32","careful","NRI","","","","","","24"
"","1647","same-different-html-trial","39","399537","0.0-3.0-36.0","","3136-2","""vulgar""","""zoku.wav""","32","vulgar","NAdj","","","","","","25"
"","2201","same-different-html-trial","40","408745","0.0-3.0-37.0","","3136-2","""messy""","""gocha.wav""","32","messy","SRI","","","","","","26"
"","2219","same-different-html-trial","41","417970","0.0-3.0-38.0","","3136-2","""gaping""","""pokapoka.wav""","32","gaping","RNRI","","","","","","27"
"","2767","same-different-html-trial","42","427743","0.0-3.0-39.0","","3136-2","""rash""","""muchamucha.wav""","32","rash","RNAdj","","","","","","28"
"","2690","same-different-html-trial","43","437442","0.0-3.0-40.0","","3136-2","""nonchalantly""","""kerokero.wav""","32","nonchalantly","RNRI","","","","","","29"
"","3600","same-different-html-trial","44","448049","0.0-3.0-41.0","","3136-2","""noisy""","""gayagaya.wav""","32","noisy","RI","","","","","","30"
"","5935","same-different-html-trial","45","460989","0.0-3.0-42.0","","3136-2","""resolute""","""bassari.wav""","32","resolute","NRI","","","","","","31"
"","2154","same-different-html-trial","46","470150","0.0-3.0-43.0","","3136-2","""deficient""","""fubifubi.wav""","32","deficient","RNAdj","","","","","","32"
"","1873","same-different-html-trial","47","479031","0.0-3.0-44.0","","3136-2","""sloppy""","""zatsuzatsu.wav""","32","sloppy","RNAdj","","","","","","33"
"","3086","same-different-html-trial","48","489123","0.0-3.0-45.0","","3136-2","""steaming""","""hoka.wav""","32","steaming","SRI","","","","","","34"
"","2797","same-different-html-trial","49","498929","0.0-3.0-46.0","","3136-2","""whispering""","""hisohiso.wav""","32","whispering","RI","","","","","","35"
"","1643","same-different-html-trial","50","507583","0.0-3.0-47.0","","3136-2","""sturdy""","""gashi.wav""","32","sturdy","NRI","","","","","","36"
"","4202","same-different-html-trial","51","518792","0.0-3.0-48.0","","3136-2","""hesitant""","""moji.wav""","32","hesitant","SRI","","","","","","37"
"","5425","same-different-html-trial","52","531443","0.0-3.0-49.0","","3136-2","""supple""","""shinnarishinnari.wav""","32","supple","RNRI","","","","","","38"
"","1505","same-different-html-trial","53","539959","0.0-3.0-50.0","","3136-2","""stupid""","""bakabaka.wav""","32","stupid","RNAdj","","","","","","39"
"","1617","same-different-html-trial","54","548584","0.0-3.0-51.0","","3136-2","""chubby""","""bukubuku.wav""","32","chubby","RI","","","","","","40"
"","3480","same-different-html-trial","55","559079","0.0-3.0-52.0","","3136-2","""rare""","""mare.wav""","32","rare","NAdj","","","","","","41"
"","5226","same-different-html-trial","56","571311","0.0-3.0-53.0","","3136-2","""glossy""","""tsuyatsuya.wav""","32","glossy","RI","","","","","","42"
"","2282","same-different-html-trial","57","580606","0.0-3.0-54.0","","3136-2","""fast asleep""","""gussurigussuri.wav""","32","fast asleep","RNRI","","","","","","43"
"","377","same-different-html-trial","58","587994","0.0-3.0-55.0","","3136-2","""worn out""","""boro.wav""","32","worn out","SRI","","","","","","44"
"","1443","same-different-html-trial","59","596445","0.0-3.0-56.0","","3136-2","""harsh""","""koku.wav""","32","harsh","NAdj","","","","","","45"
"","2240","same-different-html-trial","60","605692","0.0-3.0-57.0","","3136-2","""careful""","""jikkuri.wav""","32","careful","NRI","","","","","","46"
"","703","same-different-html-trial","61","613402","0.0-3.0-58.0","","3136-2","""excessive""","""kado.wav""","32","excessive","NAdj","","","","","","47"
"","5367","same-different-html-trial","62","625775","0.0-3.0-59.0","","3136-2","""smooth""","""nopperi.wav""","32","smooth","NRI","","","","","","48"
"[{""page_index"":0,""viewing_time"":6293}]","6293","instructions","63","633069","0.0-3.0-60.0","","","","","","","","","","","","",""
"","2027","same-different-html","64","637099","0.0-3.0-61.0","","3136-2","""stupid""","""bassari.wav""","191","resolute","NRI","different","0","D","stupid","Y","1"
"","1484","same-different-html","65","641586","0.0-3.0-62.0","","3136-2","""resolute""","""bassari.wav""","90","resolute","NRI","same","0","T","resolute","Y","2"
"","1698","same-different-html","66","646288","0.0-3.0-63.0","","3136-2","""steaming""","""moji.wav""","90","hesitant","SRI","different","1","D","steaming","Y","3"
"","1803","same-different-html","67","651097","0.0-3.0-64.0","","3136-2","""noisy""","""gayagaya.wav""","191","noisy","RI","same","1","T","noisy","Y","4"
"","1951","same-different-html","68","656051","0.0-3.0-65.0","","3136-2","""vulgar""","""hoka.wav""","90","steaming","SRI","different","1","D","vulgar","Y","5"
"","2301","same-different-html","69","661357","0.0-3.0-66.0","","3136-2","""gaping""","""pokapoka.wav""","191","gaping","RNRI","same","1","T","gaping","Y","6"
"","2588","same-different-html","70","666946","0.0-3.0-67.0","","3136-2","""steaming""","""hoka.wav""","90","steaming","SRI","same","0","T","steaming","Y","7"
"","1355","same-different-html","71","671305","0.0-3.0-68.0","","3136-2","""sloppy""","""zatsuzatsu.wav""","191","sloppy","RNAdj","same","1","T","sloppy","Y","8"
"","2082","same-different-html","72","676393","0.0-3.0-69.0","","3136-2","""careful""","""shinnarishinnari.wav""","90","supple","RNRI","different","1","D","careful","Y","9"
"","1775","same-different-html","73","681172","0.0-3.0-70.0","","3136-2","""rash""","""zoku.wav""","191","vulgar","NAdj","different","0","D","rash","Y","10"
"","1752","same-different-html","74","685928","0.0-3.0-71.0","","3136-2","""supple""","""shinnarishinnari.wav""","191","supple","RNRI","same","1","T","supple","Y","11"
"","1905","same-different-html","75","690836","0.0-3.0-72.0","","3136-2","""glossy""","""bukubuku.wav""","191","chubby","RI","different","0","D","glossy","Y","12"
"","1422","same-different-html","76","695262","0.0-3.0-73.0","","3136-2","""chubby""","""gashi.wav""","90","sturdy","NRI","different","1","D","chubby","Y","13"
"","1614","same-different-html","77","699881","0.0-3.0-74.0","","3136-2","""rash""","""muchamucha.wav""","191","rash","RNAdj","same","1","T","rash","Y","14"
"","939","same-different-html","78","703823","0.0-3.0-75.0","","3136-2","""hesitant""","""moji.wav""","191","hesitant","SRI","same","1","T","hesitant","Y","15"
"","1740","same-different-html","79","708569","0.0-3.0-76.0","","3136-2","""rare""","""koku.wav""","90","harsh","NAdj","different","1","D","rare","Y","16"
"","1851","same-different-html","80","713427","0.0-3.0-77.0","","3136-2","""careful""","""jikkuri.wav""","191","careful","NRI","same","1","T","careful","Y","17"
"","1341","same-different-html","81","717772","0.0-3.0-78.0","","3136-2","""resolute""","""muchamucha.wav""","191","rash","RNAdj","different","0","D","resolute","Y","18"
"","2173","same-different-html","82","722951","0.0-3.0-79.0","","3136-2","""whispering""","""hisohiso.wav""","191","whispering","RI","same","1","T","whispering","Y","19"
"","1633","same-different-html","83","727589","0.0-3.0-80.0","","3136-2","""fast asleep""","""gussurigussuri.wav""","191","fast asleep","RNRI","same","1","T","fast asleep","Y","20"
"","1873","same-different-html","84","732467","0.0-3.0-81.0","","3136-2","""nonchalantly""","""kerokero.wav""","191","nonchalantly","RNRI","same","1","T","nonchalantly","Y","21"
"","1275","same-different-html","85","736747","0.0-3.0-82.0","","3136-2","""harsh""","""koku.wav""","90","harsh","NAdj","same","0","T","harsh","Y","22"
"","1834","same-different-html","86","741587","0.0-3.0-83.0","","3136-2","""deficient""","""nopperi.wav""","191","smooth","NRI","different","0","D","deficient","Y","23"
"","1943","same-different-html","87","746534","0.0-3.0-84.0","","3136-2","""glossy""","""tsuyatsuya.wav""","191","glossy","RI","same","1","T","glossy","Y","24"
"","1915","same-different-html","88","751455","0.0-3.0-85.0","","3136-2","""sloppy""","""jikkuri.wav""","90","careful","NRI","different","1","D","sloppy","Y","25"
"","2655","same-different-html","89","757115","0.0-3.0-86.0","","3136-2","""chubby""","""bukubuku.wav""","191","chubby","RI","same","1","T","chubby","Y","26"
"","2319","same-different-html","90","762438","0.0-3.0-87.0","","3136-2","""messy""","""gussurigussuri.wav""","90","fast asleep","RNRI","different","1","D","messy","Y","27"
"","2039","same-different-html","91","767482","0.0-3.0-88.0","","3136-2","""whispering""","""pokapoka.wav""","191","gaping","RNRI","different","0","D","whispering","Y","28"
"","1444","same-different-html","92","771930","0.0-3.0-89.0","","3136-2","""excessive""","""zatsuzatsu.wav""","191","sloppy","RNAdj","different","0","D","excessive","Y","29"
"","1443","same-different-html","93","776377","0.0-3.0-90.0","","3136-2","""noisy""","""fubifubi.wav""","191","deficient","RNAdj","different","0","D","noisy","Y","30"
"","1460","same-different-html","94","780843","0.0-3.0-91.0","","3136-2","""stupid""","""bakabaka.wav""","191","stupid","RNAdj","same","1","T","stupid","Y","31"
"","1531","same-different-html","95","785382","0.0-3.0-92.0","","3136-2","""nonchalantly""","""gayagaya.wav""","191","noisy","RI","different","0","D","nonchalantly","Y","32"
"","3675","same-different-html","96","792061","0.0-3.0-93.0","","3136-2","""messy""","""gocha.wav""","90","messy","SRI","same","0","T","messy","Y","33"
"","1521","same-different-html","97","796586","0.0-3.0-94.0","","3136-2","""excessive""","""kado.wav""","90","excessive","NAdj","same","0","T","excessive","Y","34"
"","2002","same-different-html","98","801594","0.0-3.0-95.0","","3136-2","""supple""","""boro.wav""","90","worn out","SRI","different","1","D","supple","Y","35"
"","1228","same-different-html","99","805826","0.0-3.0-96.0","","3136-2","""worn out""","""boro.wav""","191","worn out","SRI","same","1","T","worn out","Y","36"
"","1498","same-different-html","100","810330","0.0-3.0-97.0","","3136-2","""worn out""","""tsuyatsuya.wav""","90","glossy","RI","different","1","D","worn out","Y","37"
"","1489","same-different-html","101","814825","0.0-3.0-98.0","","3136-2","""fast asleep""","""kado.wav""","90","excessive","NAdj","different","1","D","fast asleep","Y","38"
"","3446","same-different-html","102","821275","0.0-3.0-99.0","","3136-2","""deficient""","""fubifubi.wav""","90","deficient","RNAdj","same","0","T","deficient","Y","39"
"","2649","same-different-html","103","826932","0.0-3.0-100.0","","3136-2","""sturdy""","""gashi.wav""","191","sturdy","NRI","same","1","T","sturdy","Y","40"
"","1281","same-different-html","104","831219","0.0-3.0-101.0","","3136-2","""smooth""","""nopperi.wav""","90","smooth","NRI","same","0","T","smooth","Y","41"
"","2616","same-different-html","105","836841","0.0-3.0-102.0","","3136-2","""hesitant""","""gocha.wav""","90","messy","SRI","different","1","D","hesitant","Y","42"
"","1494","same-different-html","106","841338","0.0-3.0-103.0","","3136-2","""rare""","""mare.wav""","191","rare","NAdj","same","1","T","rare","Y","43"
"","1333","same-different-html","107","845676","0.0-3.0-104.0","","3136-2","""gaping""","""bakabaka.wav""","90","stupid","RNAdj","different","1","D","gaping","Y","44"
"","1378","same-different-html","108","850061","0.0-3.0-105.0","","3136-2","""sturdy""","""kerokero.wav""","191","nonchalantly","RNRI","different","0","D","sturdy","Y","45"
"","1252","same-different-html","109","854321","0.0-3.0-106.0","","3136-2","""harsh""","""hisohiso.wav""","90","whispering","RI","different","1","D","harsh","Y","46"
"","2240","same-different-html","110","859567","0.0-3.0-107.0","","3136-2","""vulgar""","""zoku.wav""","90","vulgar","NAdj","same","0","T","vulgar","Y","47"
"","1270","same-different-html","111","863842","0.0-3.0-108.0","","3136-2","""smooth""","""mare.wav""","90","rare","NAdj","different","1","D","smooth","Y","48"
"[{""page_index"":0,""viewing_time"":2773}]","2773","instructions","112","867616","0.0-3.0-109.0","","","","","","","","","","","","",""
