"view_history","rt","trial_type","trial_index","time_elapsed","internal_node_id","responses","Id","word","sound","key_press","TrueMeaning","WordType","answer","correct","TrialType","TargetMeaning","LegalTrial","trialNum"
"[{""page_index"":0,""viewing_time"":2870}]","2870","instructions","0","2872","0.0-0.0","","","","","","","","","","","","",""
"[{""page_index"":0,""viewing_time"":2719},{""page_index"":1,""viewing_time"":2648},{""page_index"":2,""viewing_time"":2271},{""page_index"":3,""viewing_time"":2105},{""page_index"":4,""viewing_time"":50742}]","60485","instructions","1","63357","0.0-1.0","","","","","","","","","","","","",""
"","16372","survey-multi-choice","2","79733","0.0-2.0","{""Q0"":""Yes"",""Q1"":""Yes"",""Q2"":""Yes"",""Q3"":""Yes"",""Q4"":""Yes""}","","","","","","","","","","","",""
"[{""page_index"":0,""viewing_time"":1967},{""page_index"":1,""viewing_time"":7887}]","9855","instructions","3","89588","0.0-3.0-0.0","","","","","","","","","","","","",""
"","2492","same-different-html-trial","4","98092","0.0-3.0-1.0","","0","""sushi""","""prc_sushi.wav""","32","","","","","","","",""
"[{""page_index"":0,""viewing_time"":12982}]","12982","instructions","5","112075","0.0-3.0-2.0","","","","","","","","","","","","",""
"","5653","same-different-html","6","119740","0.0-3.0-3.0","","0","""sushi""","""prc_sushi.wav""","191","","","same","1","","","0",""
"[{""page_index"":0,""viewing_time"":3453}]","3453","instructions","7","124195","0.0-3.0-4.0","","","","","","","","","","","","",""
"","3603","same-different-html","8","129804","0.0-3.0-5.0","","0","""cat""","""prc_sushi.wav""","90","","","different","1","","","0",""
"[{""page_index"":0,""viewing_time"":3581},{""page_index"":1,""viewing_time"":3192}]","6774","instructions","9","137579","0.0-3.0-6.0","","","","","","","","","","","","",""
"","6193","same-different-html-trial","10","149787","0.0-3.0-7.0","","0","""thank you""","""prc_arigato.wav""","32","","","","","","","",""
"[{""page_index"":0,""viewing_time"":5118}]","5118","instructions","11","155906","0.0-3.0-8.0","","","","","","","","","","","","",""
"","2693","same-different-html","12","160611","0.0-3.0-9.0","","0","""thank you""","""prc_arigato.wav""","191","","","same","1","","","0",""
"","1764","same-different-html","13","165385","0.0-3.0-10.0","","0","""cat""","""prc_arigato.wav""","90","","","different","1","","","0",""
"[{""page_index"":0,""viewing_time"":1854},{""page_index"":1,""viewing_time"":10792}]","12647","instructions","14","179034","0.0-3.0-11.0","","","","","","","","","","","","",""
"","5785","same-different-html-trial","15","190834","0.0-3.0-12.0","","3372-4","""clear""","""kukkirikukkiri.wav""","32","clear","RNRI","","","","","","1"
"","2459","same-different-html-trial","16","200313","0.0-3.0-13.0","","3372-4","""supple""","""shinnari.wav""","32","supple","NRI","","","","","","2"
"","3477","same-different-html-trial","17","210809","0.0-3.0-14.0","","3372-4","""subdued""","""jimi.wav""","32","subdued","NAdj","","","","","","3"
"","8142","same-different-html-trial","18","225976","0.0-3.0-15.0","","3372-4","""hesitant""","""moji.wav""","32","hesitant","SRI","","","","","","4"
"","3324","same-different-html-trial","19","236320","0.0-3.0-16.0","","3372-4","""wobbly""","""yurayura.wav""","32","wobbly","RI","","","","","","5"
"","3766","same-different-html-trial","20","247103","0.0-3.0-17.0","","3372-4","""plump""","""potcharipotchari.wav""","32","plump","RNRI","","","","","","6"
"","4409","same-different-html-trial","21","258536","0.0-3.0-18.0","","3372-4","""smug""","""kizakiza.wav""","32","smug","RNAdj","","","","","","7"
"","4015","same-different-html-trial","22","269574","0.0-3.0-19.0","","3372-4","""steaming""","""hoka.wav""","32","steaming","SRI","","","","","","8"
"","3334","same-different-html-trial","23","279918","0.0-3.0-20.0","","3372-4","""stiff""","""gowagowa.wav""","32","stiff","RI","","","","","","9"
"","3162","same-different-html-trial","24","290094","0.0-3.0-21.0","","3372-4","""fat""","""debudebu.wav""","32","fat","RI","","","","","","10"
"","3113","same-different-html-trial","25","300221","0.0-3.0-22.0","","3372-4","""to change ocmpletely""","""gara.wav""","32","to change ocmpletely","NRI","","","","","","11"
"","5870","same-different-html-trial","26","313109","0.0-3.0-23.0","","3372-4","""noisy""","""gayagaya.wav""","32","noisy","RI","","","","","","12"
"","4596","same-different-html-trial","27","324724","0.0-3.0-24.0","","3372-4","""energetic""","""kibi.wav""","32","energetic","SRI","","","","","","13"
"","3665","same-different-html-trial","28","335412","0.0-3.0-25.0","","3372-4","""vulgar""","""zokuzoku.wav""","32","vulgar","RNAdj","","","","","","14"
"","4605","same-different-html-trial","29","347036","0.0-3.0-26.0","","3372-4","""sullen""","""musumusu.wav""","32","sullen","RNRI","","","","","","15"
"","5251","same-different-html-trial","30","359307","0.0-3.0-27.0","","3372-4","""exact""","""kakkirikakkiri.wav""","32","exact","RNRI","","","","","","16"
"","4631","same-different-html-trial","31","370963","0.0-3.0-28.0","","3372-4","""careful""","""jikkuri.wav""","32","careful","NRI","","","","","","17"
"","2931","same-different-html-trial","32","380914","0.0-3.0-29.0","","3372-4","""rash""","""mucha.wav""","32","rash","NAdj","","","","","","18"
"","3009","same-different-html-trial","33","390946","0.0-3.0-30.0","","3372-4","""deficient""","""fubi.wav""","32","deficient","NAdj","","","","","","19"
"","5113","same-different-html-trial","34","403073","0.0-3.0-31.0","","3372-4","""smooth""","""nopperi.wav""","32","smooth","NRI","","","","","","20"
"","3169","same-different-html-trial","35","413257","0.0-3.0-32.0","","3372-4","""shivering""","""buru.wav""","32","shivering","SRI","","","","","","21"
"","8205","same-different-html-trial","36","428489","0.0-3.0-33.0","","3372-4","""beneficial""","""tokutoku.wav""","32","beneficial","RNAdj","","","","","","22"
"","2526","same-different-html-trial","37","438032","0.0-3.0-34.0","","3372-4","""free""","""himahima.wav""","32","free","RNAdj","","","","","","23"
"","5618","same-different-html-trial","38","450664","0.0-3.0-35.0","","3372-4","""disadvantaged""","""furi.wav""","32","disadvantaged","NAdj","","","","","","24"
"","1556","same-different-html-trial","39","459238","0.0-3.0-36.0","","3372-4","""stiff""","""gowagowa.wav""","32","stiff","RI","","","","","","25"
"","1866","same-different-html-trial","40","468111","0.0-3.0-37.0","","3372-4","""energetic""","""kibi.wav""","32","energetic","SRI","","","","","","26"
"","2257","same-different-html-trial","41","477390","0.0-3.0-38.0","","3372-4","""plump""","""potcharipotchari.wav""","32","plump","RNRI","","","","","","27"
"","1513","same-different-html-trial","42","485926","0.0-3.0-39.0","","3372-4","""supple""","""shinnari.wav""","32","supple","NRI","","","","","","28"
"","1752","same-different-html-trial","43","494694","0.0-3.0-40.0","","3372-4","""to change ocmpletely""","""gara.wav""","32","to change ocmpletely","NRI","","","","","","29"
"","1933","same-different-html-trial","44","503646","0.0-3.0-41.0","","3372-4","""clear""","""kukkirikukkiri.wav""","32","clear","RNRI","","","","","","30"
"","1391","same-different-html-trial","45","512053","0.0-3.0-42.0","","3372-4","""beneficial""","""tokutoku.wav""","32","beneficial","RNAdj","","","","","","31"
"","1320","same-different-html-trial","46","520389","0.0-3.0-43.0","","3372-4","""subdued""","""jimi.wav""","32","subdued","NAdj","","","","","","32"
"","1371","same-different-html-trial","47","528781","0.0-3.0-44.0","","3372-4","""steaming""","""hoka.wav""","32","steaming","SRI","","","","","","33"
"","1515","same-different-html-trial","48","537316","0.0-3.0-45.0","","3372-4","""noisy""","""gayagaya.wav""","32","noisy","RI","","","","","","34"
"","3258","same-different-html-trial","49","547596","0.0-3.0-46.0","","3372-4","""hesitant""","""moji.wav""","32","hesitant","SRI","","","","","","35"
"","1664","same-different-html-trial","50","556275","0.0-3.0-47.0","","3372-4","""smooth""","""nopperi.wav""","32","smooth","NRI","","","","","","36"
"","1696","same-different-html-trial","51","564995","0.0-3.0-48.0","","3372-4","""wobbly""","""yurayura.wav""","32","wobbly","RI","","","","","","37"
"","1702","same-different-html-trial","52","573714","0.0-3.0-49.0","","3372-4","""careful""","""jikkuri.wav""","32","careful","NRI","","","","","","38"
"","2182","same-different-html-trial","53","582914","0.0-3.0-50.0","","3372-4","""smug""","""kizakiza.wav""","32","smug","RNAdj","","","","","","39"
"","2123","same-different-html-trial","54","592050","0.0-3.0-51.0","","3372-4","""deficient""","""fubi.wav""","32","deficient","NAdj","","","","","","40"
"","2025","same-different-html-trial","55","601098","0.0-3.0-52.0","","3372-4","""sullen""","""musumusu.wav""","32","sullen","RNRI","","","","","","41"
"","1597","same-different-html-trial","56","609713","0.0-3.0-53.0","","3372-4","""fat""","""debudebu.wav""","32","fat","RI","","","","","","42"
"","4845","same-different-html-trial","57","621578","0.0-3.0-54.0","","3372-4","""exact""","""kakkirikakkiri.wav""","32","exact","RNRI","","","","","","43"
"","1581","same-different-html-trial","58","630177","0.0-3.0-55.0","","3372-4","""rash""","""mucha.wav""","32","rash","NAdj","","","","","","44"
"","1546","same-different-html-trial","59","638745","0.0-3.0-56.0","","3372-4","""free""","""himahima.wav""","32","free","RNAdj","","","","","","45"
"","1969","same-different-html-trial","60","647736","0.0-3.0-57.0","","3372-4","""disadvantaged""","""furi.wav""","32","disadvantaged","NAdj","","","","","","46"
"","1747","same-different-html-trial","61","656496","0.0-3.0-58.0","","3372-4","""shivering""","""buru.wav""","32","shivering","SRI","","","","","","47"
"","2606","same-different-html-trial","62","666119","0.0-3.0-59.0","","3372-4","""vulgar""","""zokuzoku.wav""","32","vulgar","RNAdj","","","","","","48"
"[{""page_index"":0,""viewing_time"":10863}]","10863","instructions","63","677982","0.0-3.0-60.0","","","","","","","","","","","","",""
"","6370","same-different-html","64","686358","0.0-3.0-61.0","","3372-4","""deficient""","""hoka.wav""","90","steaming","SRI","different","1","D","deficient","Y","1"
"","1925","same-different-html","65","691294","0.0-3.0-62.0","","3372-4","""steaming""","""hoka.wav""","191","steaming","SRI","same","1","T","steaming","Y","2"
"","3074","same-different-html","66","697382","0.0-3.0-63.0","","3372-4","""energetic""","""kibi.wav""","191","energetic","SRI","same","1","T","energetic","Y","3"
"","3114","same-different-html","67","703510","0.0-3.0-64.0","","3372-4","""stiff""","""himahima.wav""","90","free","RNAdj","different","1","D","stiff","Y","4"
"","3106","same-different-html","68","709629","0.0-3.0-65.0","","3372-4","""hesitant""","""moji.wav""","90","hesitant","SRI","same","0","T","hesitant","Y","5"
"","4589","same-different-html","69","717229","0.0-3.0-66.0","","3372-4","""fat""","""debudebu.wav""","191","fat","RI","same","1","T","fat","Y","6"
"","3511","same-different-html","70","723749","0.0-3.0-67.0","","3372-4","""sullen""","""musumusu.wav""","191","sullen","RNRI","same","1","T","sullen","Y","7"
"","3195","same-different-html","71","729957","0.0-3.0-68.0","","3372-4","""fat""","""shinnari.wav""","90","supple","NRI","different","1","D","fat","Y","8"
"","3316","same-different-html","72","736284","0.0-3.0-69.0","","3372-4","""subdued""","""fubi.wav""","90","deficient","NAdj","different","1","D","subdued","Y","9"
"","3128","same-different-html","73","742421","0.0-3.0-70.0","","3372-4","""free""","""himahima.wav""","191","free","RNAdj","same","1","T","free","Y","10"
"","3278","same-different-html","74","748708","0.0-3.0-71.0","","3372-4","""vulgar""","""zokuzoku.wav""","90","vulgar","RNAdj","same","0","T","vulgar","Y","11"
"","3398","same-different-html","75","755115","0.0-3.0-72.0","","3372-4","""noisy""","""yurayura.wav""","191","wobbly","RI","different","0","D","noisy","Y","12"
"","3288","same-different-html","76","761414","0.0-3.0-73.0","","3372-4","""wobbly""","""yurayura.wav""","90","wobbly","RI","same","0","T","wobbly","Y","13"
"","3069","same-different-html","77","767499","0.0-3.0-74.0","","3372-4","""shivering""","""buru.wav""","90","shivering","SRI","same","0","T","shivering","Y","14"
"","2986","same-different-html","78","773498","0.0-3.0-75.0","","3372-4","""stiff""","""gowagowa.wav""","90","stiff","RI","same","0","T","stiff","Y","15"
"","4363","same-different-html","79","780875","0.0-3.0-76.0","","3372-4","""clear""","""kukkirikukkiri.wav""","90","clear","RNRI","same","0","T","clear","Y","16"
"","3184","same-different-html","80","787074","0.0-3.0-77.0","","3372-4","""beneficial""","""tokutoku.wav""","191","beneficial","RNAdj","same","1","T","beneficial","Y","17"
"","4434","same-different-html","81","794523","0.0-3.0-78.0","","3372-4","""vulgar""","""nopperi.wav""","90","smooth","NRI","different","1","D","vulgar","Y","18"
"","3795","same-different-html","82","801329","0.0-3.0-79.0","","3372-4","""supple""","""shinnari.wav""","191","supple","NRI","same","1","T","supple","Y","19"
"","2934","same-different-html","83","807274","0.0-3.0-80.0","","3372-4","""smug""","""debudebu.wav""","90","fat","RI","different","1","D","smug","Y","20"
"","2886","same-different-html","84","813170","0.0-3.0-81.0","","3372-4","""exact""","""musumusu.wav""","90","sullen","RNRI","different","1","D","exact","Y","21"
"","4724","same-different-html","85","820905","0.0-3.0-82.0","","3372-4","""energetic""","""potcharipotchari.wav""","90","plump","RNRI","different","1","D","energetic","Y","22"
"","3899","same-different-html","86","827816","0.0-3.0-83.0","","3372-4","""hesitant""","""gowagowa.wav""","191","stiff","RI","different","0","D","hesitant","Y","23"
"","3499","same-different-html","87","834329","0.0-3.0-84.0","","3372-4","""disadvantaged""","""jikkuri.wav""","90","careful","NRI","different","1","D","disadvantaged","Y","24"
"","5171","same-different-html","88","842512","0.0-3.0-85.0","","3372-4","""careful""","""kizakiza.wav""","191","smug","RNAdj","different","0","D","careful","Y","25"
"","2661","same-different-html","89","848185","0.0-3.0-86.0","","3372-4","""smug""","""kizakiza.wav""","90","smug","RNAdj","same","0","T","smug","Y","26"
"","2964","same-different-html","90","854160","0.0-3.0-87.0","","3372-4","""clear""","""tokutoku.wav""","90","beneficial","RNAdj","different","1","D","clear","Y","27"
"","3181","same-different-html","91","860351","0.0-3.0-88.0","","3372-4","""steaming""","""gayagaya.wav""","90","noisy","RI","different","1","D","steaming","Y","28"
"","4750","same-different-html","92","868111","0.0-3.0-89.0","","3372-4","""plump""","""potcharipotchari.wav""","191","plump","RNRI","same","1","T","plump","Y","29"
"","3080","same-different-html","93","874200","0.0-3.0-90.0","","3372-4","""subdued""","""jimi.wav""","90","subdued","NAdj","same","0","T","subdued","Y","30"
"","2866","same-different-html","94","880079","0.0-3.0-91.0","","3372-4","""smooth""","""nopperi.wav""","90","smooth","NRI","same","0","T","smooth","Y","31"
"","3391","same-different-html","95","886479","0.0-3.0-92.0","","3372-4","""to change ocmpletely""","""gara.wav""","191","to change ocmpletely","NRI","same","1","T","to change ocmpletely","Y","32"
"","3133","same-different-html","96","892622","0.0-3.0-93.0","","3372-4","""wobbly""","""kibi.wav""","90","energetic","SRI","different","1","D","wobbly","Y","33"
"","3058","same-different-html","97","898695","0.0-3.0-94.0","","3372-4","""noisy""","""gayagaya.wav""","191","noisy","RI","same","1","T","noisy","Y","34"
"","3135","same-different-html","98","904846","0.0-3.0-95.0","","3372-4","""careful""","""jikkuri.wav""","90","careful","NRI","same","0","T","careful","Y","35"
"","2822","same-different-html","99","910678","0.0-3.0-96.0","","3372-4","""supple""","""gara.wav""","90","to change ocmpletely","NRI","different","1","D","supple","Y","36"
"","3089","same-different-html","100","916773","0.0-3.0-97.0","","3372-4","""rash""","""kakkirikakkiri.wav""","90","exact","RNRI","different","1","D","rash","Y","37"
"","3207","same-different-html","101","922990","0.0-3.0-98.0","","3372-4","""sullen""","""buru.wav""","90","shivering","SRI","different","1","D","sullen","Y","38"
"","2812","same-different-html","102","928812","0.0-3.0-99.0","","3372-4","""rash""","""mucha.wav""","191","rash","NAdj","same","1","T","rash","Y","39"
"","2960","same-different-html","103","934781","0.0-3.0-100.0","","3372-4","""smooth""","""zokuzoku.wav""","191","vulgar","RNAdj","different","0","D","smooth","Y","40"
"","2965","same-different-html","104","940756","0.0-3.0-101.0","","3372-4","""deficient""","""fubi.wav""","90","deficient","NAdj","same","0","T","deficient","Y","41"
"","4442","same-different-html","105","948205","0.0-3.0-102.0","","3372-4","""plump""","""kukkirikukkiri.wav""","90","clear","RNRI","different","1","D","plump","Y","42"
"","3179","same-different-html","106","954396","0.0-3.0-103.0","","3372-4","""to change ocmpletely""","""furi.wav""","90","disadvantaged","NAdj","different","1","D","to change ocmpletely","Y","43"
"","2757","same-different-html","107","960164","0.0-3.0-104.0","","3372-4","""beneficial""","""mucha.wav""","191","rash","NAdj","different","0","D","beneficial","Y","44"
"","2924","same-different-html","108","966099","0.0-3.0-105.0","","3372-4","""shivering""","""jimi.wav""","90","subdued","NAdj","different","1","D","shivering","Y","45"
"","3109","same-different-html","109","972220","0.0-3.0-106.0","","3372-4","""disadvantaged""","""furi.wav""","90","disadvantaged","NAdj","same","0","T","disadvantaged","Y","46"
"","2736","same-different-html","110","977963","0.0-3.0-107.0","","3372-4","""free""","""moji.wav""","90","hesitant","SRI","different","1","D","free","Y","47"
"","3094","same-different-html","111","984067","0.0-3.0-108.0","","3372-4","""exact""","""kakkirikakkiri.wav""","191","exact","RNRI","same","1","T","exact","Y","48"
"[{""page_index"":0,""viewing_time"":11990}]","11991","instructions","112","997059","0.0-3.0-109.0","","","","","","","","","","","","",""
