"view_history","rt","trial_type","trial_index","time_elapsed","internal_node_id","responses","Id","word","sound","key_press","TrueMeaning","WordType","answer","correct","TrialType","TargetMeaning","LegalTrial","trialNum"
"[{""page_index"":0,""viewing_time"":29731}]","29732","instructions","0","29736","0.0-0.0","","","","","","","","","","","","",""
"[{""page_index"":0,""viewing_time"":1748},{""page_index"":1,""viewing_time"":4015},{""page_index"":2,""viewing_time"":4263},{""page_index"":3,""viewing_time"":7798},{""page_index"":4,""viewing_time"":22989}]","40814","instructions","1","70550","0.0-1.0","","","","","","","","","","","","",""
"","14375","survey-multi-choice","2","84930","0.0-2.0","{""Q0"":""Yes"",""Q1"":""Yes"",""Q2"":""Yes"",""Q3"":""Yes"",""Q4"":""Yes""}","","","","","","","","","","","",""
"[{""page_index"":0,""viewing_time"":2135},{""page_index"":1,""viewing_time"":8854}]","10989","instructions","3","95919","0.0-3.0-0.0","","","","","","","","","","","","",""
"","6417","same-different-html-trial","4","108361","0.0-3.0-1.0","","0","""sushi""","""prc_sushi.wav""","32","","","","","","","",""
"[{""page_index"":0,""viewing_time"":27158}]","27158","instructions","5","136520","0.0-3.0-2.0","","","","","","","","","","","","",""
"","18967","same-different-html","6","157497","0.0-3.0-3.0","","0","""sushi""","""prc_sushi.wav""","191","","","same","1","","","0",""
"[{""page_index"":0,""viewing_time"":4577}]","4578","instructions","7","163077","0.0-3.0-4.0","","","","","","","","","","","","",""
"","2956","same-different-html","8","168040","0.0-3.0-5.0","","0","""cat""","""prc_sushi.wav""","90","","","different","1","","","0",""
"[{""page_index"":0,""viewing_time"":3760},{""page_index"":1,""viewing_time"":2997}]","6757","instructions","9","175798","0.0-3.0-6.0","","","","","","","","","","","","",""
"","3204","same-different-html-trial","10","185016","0.0-3.0-7.0","","0","""thank you""","""prc_arigato.wav""","32","","","","","","","",""
"[{""page_index"":0,""viewing_time"":6487}]","6487","instructions","11","192505","0.0-3.0-8.0","","","","","","","","","","","","",""
"","11521","same-different-html","12","206031","0.0-3.0-9.0","","0","""thank you""","""prc_arigato.wav""","191","","","same","1","","","0",""
"","3192","same-different-html","13","212231","0.0-3.0-10.0","","0","""cat""","""prc_arigato.wav""","90","","","different","1","","","0",""
"[{""page_index"":0,""viewing_time"":2927},{""page_index"":1,""viewing_time"":25659}]","28586","instructions","14","241820","0.0-3.0-11.0","","","","","","","","","","","","",""
"","2610","same-different-html-trial","15","250445","0.0-3.0-12.0","","5294-4","""rare""","""maremare.wav""","32","rare","RNAdj","","","","","","1"
"","3058","same-different-html-trial","16","260517","0.0-3.0-13.0","","5294-4","""excessive""","""kadokado.wav""","32","excessive","RNAdj","","","","","","2"
"","3111","same-different-html-trial","17","270643","0.0-3.0-14.0","","5294-4","""vulgar""","""zoku.wav""","32","vulgar","NAdj","","","","","","3"
"","4684","same-different-html-trial","18","282341","0.0-3.0-15.0","","5294-4","""free""","""hima.wav""","32","free","NAdj","","","","","","4"
"","15639","same-different-html-trial","19","304994","0.0-3.0-16.0","","5294-4","""supple""","""shinnari.wav""","32","supple","NRI","","","","","","5"
"","16374","same-different-html-trial","20","328386","0.0-3.0-17.0","","5294-4","""offended""","""kachinkachin.wav""","32","offended","RNRI","","","","","","6"
"","2027","same-different-html-trial","21","337426","0.0-3.0-18.0","","5294-4","""agitated""","""hiku.wav""","32","agitated","SRI","","","","","","7"
"","5584","same-different-html-trial","22","350026","0.0-3.0-19.0","","5294-4","""sudden""","""patapata.wav""","32","sudden","RNRI","","","","","","8"
"","2073","same-different-html-trial","23","359112","0.0-3.0-20.0","","5294-4","""pure""","""mukumuku.wav""","32","pure","RNAdj","","","","","","9"
"","2260","same-different-html-trial","24","368389","0.0-3.0-21.0","","5294-4","""gaping""","""poka.wav""","32","gaping","NRI","","","","","","10"
"","1619","same-different-html-trial","25","377022","0.0-3.0-22.0","","5294-4","""impossible""","""murimuri.wav""","32","impossible","RNAdj","","","","","","11"
"","12351","same-different-html-trial","26","396390","0.0-3.0-23.0","","5294-4","""decisive""","""pisha.wav""","32","decisive","NRI","","","","","","12"
"","2699","same-different-html-trial","27","406103","0.0-3.0-24.0","","5294-4","""wobbly""","""yurayura.wav""","32","wobbly","RI","","","","","","13"
"","4011","same-different-html-trial","28","417127","0.0-3.0-25.0","","5294-4","""happy""","""ukiuki.wav""","32","happy","RI","","","","","","14"
"","3113","same-different-html-trial","29","427251","0.0-3.0-26.0","","5294-4","""hesitant""","""mojimoji.wav""","32","hesitant","RI","","","","","","15"
"","2055","same-different-html-trial","30","436323","0.0-3.0-27.0","","5294-4","""clear""","""kukkirikukkiri.wav""","32","clear","RNRI","","","","","","16"
"","2341","same-different-html-trial","31","445676","0.0-3.0-28.0","","5294-4","""humid""","""mushi.wav""","32","humid","SRI","","","","","","17"
"","1902","same-different-html-trial","32","454594","0.0-3.0-29.0","","5294-4","""fragile""","""yawa.wav""","32","fragile","NAdj","","","","","","18"
"","2850","same-different-html-trial","33","464460","0.0-3.0-30.0","","5294-4","""sullen""","""musumusu.wav""","32","sullen","RNRI","","","","","","19"
"","2173","same-different-html-trial","34","473651","0.0-3.0-31.0","","5294-4","""subdued""","""jimi.wav""","32","subdued","NAdj","","","","","","20"
"","5627","same-different-html-trial","35","486293","0.0-3.0-32.0","","5294-4","""glossy""","""tsuya.wav""","32","glossy","SRI","","","","","","21"
"","1848","same-different-html-trial","36","495153","0.0-3.0-33.0","","5294-4","""fat""","""debudebu.wav""","32","fat","RI","","","","","","22"
"","2085","same-different-html-trial","37","504250","0.0-3.0-34.0","","5294-4","""nonchalantly""","""kero.wav""","32","nonchalantly","NRI","","","","","","23"
"","2166","same-different-html-trial","38","513433","0.0-3.0-35.0","","5294-4","""shivering""","""buru.wav""","32","shivering","SRI","","","","","","24"
"","3185","same-different-html-trial","39","523635","0.0-3.0-36.0","","5294-4","""clear""","""kukkirikukkiri.wav""","32","clear","RNRI","","","","","","25"
"","2392","same-different-html-trial","40","533041","0.0-3.0-37.0","","5294-4","""happy""","""ukiuki.wav""","32","happy","RI","","","","","","26"
"","1209","same-different-html-trial","41","541266","0.0-3.0-38.0","","5294-4","""offended""","""kachinkachin.wav""","32","offended","RNRI","","","","","","27"
"","4788","same-different-html-trial","42","553064","0.0-3.0-39.0","","5294-4","""rare""","""maremare.wav""","32","rare","RNAdj","","","","","","28"
"","1604","same-different-html-trial","43","561685","0.0-3.0-40.0","","5294-4","""humid""","""mushi.wav""","32","humid","SRI","","","","","","29"
"","670","same-different-html-trial","44","569368","0.0-3.0-41.0","","5294-4","""vulgar""","""zoku.wav""","32","vulgar","NAdj","","","","","","30"
"","2825","same-different-html-trial","45","579206","0.0-3.0-42.0","","5294-4","""pure""","""mukumuku.wav""","32","pure","RNAdj","","","","","","31"
"","3525","same-different-html-trial","46","589744","0.0-3.0-43.0","","5294-4","""hesitant""","""mojimoji.wav""","32","hesitant","RI","","","","","","32"
"","2473","same-different-html-trial","47","599230","0.0-3.0-44.0","","5294-4","""fat""","""debudebu.wav""","32","fat","RI","","","","","","33"
"","2286","same-different-html-trial","48","608532","0.0-3.0-45.0","","5294-4","""sullen""","""musumusu.wav""","32","sullen","RNRI","","","","","","34"
"","5208","same-different-html-trial","49","620756","0.0-3.0-46.0","","5294-4","""impossible""","""murimuri.wav""","32","impossible","RNAdj","","","","","","35"
"","1346","same-different-html-trial","50","629115","0.0-3.0-47.0","","5294-4","""glossy""","""tsuya.wav""","32","glossy","SRI","","","","","","36"
"","254","same-different-html-trial","51","636385","0.0-3.0-48.0","","5294-4","""wobbly""","""yurayura.wav""","32","wobbly","RI","","","","","","37"
"","1433","same-different-html-trial","52","644834","0.0-3.0-49.0","","5294-4","""gaping""","""poka.wav""","32","gaping","NRI","","","","","","38"
"","2337","same-different-html-trial","53","654189","0.0-3.0-50.0","","5294-4","""decisive""","""pisha.wav""","32","decisive","NRI","","","","","","39"
"","2265","same-different-html-trial","54","663467","0.0-3.0-51.0","","5294-4","""nonchalantly""","""kero.wav""","32","nonchalantly","NRI","","","","","","40"
"","1492","same-different-html-trial","55","671969","0.0-3.0-52.0","","5294-4","""fragile""","""yawa.wav""","32","fragile","NAdj","","","","","","41"
"","2047","same-different-html-trial","56","681033","0.0-3.0-53.0","","5294-4","""sudden""","""patapata.wav""","32","sudden","RNRI","","","","","","42"
"","3648","same-different-html-trial","57","691699","0.0-3.0-54.0","","5294-4","""shivering""","""buru.wav""","32","shivering","SRI","","","","","","43"
"","2337","same-different-html-trial","58","701049","0.0-3.0-55.0","","5294-4","""excessive""","""kadokado.wav""","32","excessive","RNAdj","","","","","","44"
"","3274","same-different-html-trial","59","711336","0.0-3.0-56.0","","5294-4","""agitated""","""hiku.wav""","32","agitated","SRI","","","","","","45"
"","1295","same-different-html-trial","60","719648","0.0-3.0-57.0","","5294-4","""subdued""","""jimi.wav""","32","subdued","NAdj","","","","","","46"
"","2839","same-different-html-trial","61","729495","0.0-3.0-58.0","","5294-4","""supple""","""shinnari.wav""","32","supple","NRI","","","","","","47"
"","1345","same-different-html-trial","62","737854","0.0-3.0-59.0","","5294-4","""free""","""hima.wav""","32","free","NAdj","","","","","","48"
"[{""page_index"":0,""viewing_time"":29115}]","29116","instructions","63","767976","0.0-3.0-60.0","","","","","","","","","","","","",""
"","3399","same-different-html","64","773381","0.0-3.0-61.0","","5294-4","""fat""","""ukiuki.wav""","90","happy","RI","different","1","D","fat","Y","1"
"","1513","same-different-html","65","777904","0.0-3.0-62.0","","5294-4","""subdued""","""jimi.wav""","191","subdued","NAdj","same","1","T","subdued","Y","2"
"","1357","same-different-html","66","782270","0.0-3.0-63.0","","5294-4","""decisive""","""jimi.wav""","90","subdued","NAdj","different","1","D","decisive","Y","3"
"","1463","same-different-html","67","786742","0.0-3.0-64.0","","5294-4","""glossy""","""tsuya.wav""","191","glossy","SRI","same","1","T","glossy","Y","4"
"","2344","same-different-html","68","792092","0.0-3.0-65.0","","5294-4","""sullen""","""musumusu.wav""","191","sullen","RNRI","same","1","T","sullen","Y","5"
"","1439","same-different-html","69","796539","0.0-3.0-66.0","","5294-4","""wobbly""","""yurayura.wav""","191","wobbly","RI","same","1","T","wobbly","Y","6"
"","3874","same-different-html","70","803421","0.0-3.0-67.0","","5294-4","""decisive""","""pisha.wav""","90","decisive","NRI","same","0","T","decisive","Y","7"
"","3933","same-different-html","71","810363","0.0-3.0-68.0","","5294-4","""shivering""","""hiku.wav""","191","agitated","SRI","different","0","D","shivering","Y","8"
"","3753","same-different-html","72","817125","0.0-3.0-69.0","","5294-4","""fragile""","""kukkirikukkiri.wav""","90","clear","RNRI","different","1","D","fragile","Y","9"
"","1410","same-different-html","73","821540","0.0-3.0-70.0","","5294-4","""supple""","""yurayura.wav""","90","wobbly","RI","different","1","D","supple","Y","10"
"","2055","same-different-html","74","826603","0.0-3.0-71.0","","5294-4","""sullen""","""kero.wav""","90","nonchalantly","NRI","different","1","D","sullen","Y","11"
"","1678","same-different-html","75","831291","0.0-3.0-72.0","","5294-4","""vulgar""","""zoku.wav""","191","vulgar","NAdj","same","1","T","vulgar","Y","12"
"","1876","same-different-html","76","836178","0.0-3.0-73.0","","5294-4","""hesitant""","""mojimoji.wav""","191","hesitant","RI","same","1","T","hesitant","Y","13"
"","2177","same-different-html","77","841364","0.0-3.0-74.0","","5294-4","""vulgar""","""musumusu.wav""","90","sullen","RNRI","different","1","D","vulgar","Y","14"
"","1286","same-different-html","78","845658","0.0-3.0-75.0","","5294-4","""sudden""","""patapata.wav""","191","sudden","RNRI","same","1","T","sudden","Y","15"
"","1557","same-different-html","79","850226","0.0-3.0-76.0","","5294-4","""excessive""","""kadokado.wav""","191","excessive","RNAdj","same","1","T","excessive","Y","16"
"","1152","same-different-html","80","854388","0.0-3.0-77.0","","5294-4","""nonchalantly""","""kero.wav""","191","nonchalantly","NRI","same","1","T","nonchalantly","Y","17"
"","1266","same-different-html","81","858665","0.0-3.0-78.0","","5294-4","""subdued""","""mukumuku.wav""","90","pure","RNAdj","different","1","D","subdued","Y","18"
"","1706","same-different-html","82","863378","0.0-3.0-79.0","","5294-4","""gaping""","""poka.wav""","191","gaping","NRI","same","1","T","gaping","Y","19"
"","1271","same-different-html","83","867659","0.0-3.0-80.0","","5294-4","""gaping""","""mojimoji.wav""","90","hesitant","RI","different","1","D","gaping","Y","20"
"","3431","same-different-html","84","874096","0.0-3.0-81.0","","5294-4","""impossible""","""murimuri.wav""","191","impossible","RNAdj","same","1","T","impossible","Y","21"
"","3636","same-different-html","85","880741","0.0-3.0-82.0","","5294-4","""offended""","""pisha.wav""","90","decisive","NRI","different","1","D","offended","Y","22"
"","1546","same-different-html","86","885299","0.0-3.0-83.0","","5294-4","""sudden""","""kachinkachin.wav""","90","offended","RNRI","different","1","D","sudden","Y","23"
"","2013","same-different-html","87","890322","0.0-3.0-84.0","","5294-4","""happy""","""mushi.wav""","90","humid","SRI","different","1","D","happy","Y","24"
"","1791","same-different-html","88","895123","0.0-3.0-85.0","","5294-4","""clear""","""kukkirikukkiri.wav""","191","clear","RNRI","same","1","T","clear","Y","25"
"","1800","same-different-html","89","899929","0.0-3.0-86.0","","5294-4","""happy""","""ukiuki.wav""","191","happy","RI","same","1","T","happy","Y","26"
"","3773","same-different-html","90","906712","0.0-3.0-87.0","","5294-4","""fragile""","""yawa.wav""","191","fragile","NAdj","same","1","T","fragile","Y","27"
"","4792","same-different-html","91","914511","0.0-3.0-88.0","","5294-4","""agitated""","""debudebu.wav""","90","fat","RI","different","1","D","agitated","Y","28"
"","1288","same-different-html","92","918808","0.0-3.0-89.0","","5294-4","""excessive""","""maremare.wav""","90","rare","RNAdj","different","1","D","excessive","Y","29"
"","1836","same-different-html","93","923654","0.0-3.0-90.0","","5294-4","""free""","""hima.wav""","191","free","NAdj","same","1","T","free","Y","30"
"","1304","same-different-html","94","927967","0.0-3.0-91.0","","5294-4","""clear""","""murimuri.wav""","90","impossible","RNAdj","different","1","D","clear","Y","31"
"","1242","same-different-html","95","932214","0.0-3.0-92.0","","5294-4","""wobbly""","""zoku.wav""","90","vulgar","NAdj","different","1","D","wobbly","Y","32"
"","1241","same-different-html","96","936462","0.0-3.0-93.0","","5294-4","""nonchalantly""","""poka.wav""","90","gaping","NRI","different","1","D","nonchalantly","Y","33"
"","1528","same-different-html","97","940998","0.0-3.0-94.0","","5294-4","""humid""","""mushi.wav""","191","humid","SRI","same","1","T","humid","Y","34"
"","2938","same-different-html","98","946943","0.0-3.0-95.0","","5294-4","""agitated""","""hiku.wav""","191","agitated","SRI","same","1","T","agitated","Y","35"
"","1503","same-different-html","99","951454","0.0-3.0-96.0","","5294-4","""rare""","""tsuya.wav""","90","glossy","SRI","different","1","D","rare","Y","36"
"","7924","same-different-html","100","962385","0.0-3.0-97.0","","5294-4","""supple""","""shinnari.wav""","90","supple","NRI","same","0","T","supple","Y","37"
"","1071","same-different-html","101","966461","0.0-3.0-98.0","","5294-4","""humid""","""yawa.wav""","90","fragile","NAdj","different","1","D","humid","Y","38"
"","1073","same-different-html","102","970542","0.0-3.0-99.0","","5294-4","""glossy""","""buru.wav""","90","shivering","SRI","different","1","D","glossy","Y","39"
"","1333","same-different-html","103","974877","0.0-3.0-100.0","","5294-4","""free""","""shinnari.wav""","90","supple","NRI","different","1","D","free","Y","40"
"","1694","same-different-html","104","979580","0.0-3.0-101.0","","5294-4","""pure""","""patapata.wav""","90","sudden","RNRI","different","1","D","pure","Y","41"
"","2722","same-different-html","105","985310","0.0-3.0-102.0","","5294-4","""pure""","""mukumuku.wav""","191","pure","RNAdj","same","1","T","pure","Y","42"
"","1606","same-different-html","106","989924","0.0-3.0-103.0","","5294-4","""shivering""","""buru.wav""","90","shivering","SRI","same","0","T","shivering","Y","43"
"","2056","same-different-html","107","994988","0.0-3.0-104.0","","5294-4","""offended""","""kachinkachin.wav""","191","offended","RNRI","same","1","T","offended","Y","44"
"","2496","same-different-html","108","1000493","0.0-3.0-105.0","","5294-4","""impossible""","""kadokado.wav""","90","excessive","RNAdj","different","1","D","impossible","Y","45"
"","1396","same-different-html","109","1004899","0.0-3.0-106.0","","5294-4","""hesitant""","""hima.wav""","90","free","NAdj","different","1","D","hesitant","Y","46"
"","2143","same-different-html","110","1010051","0.0-3.0-107.0","","5294-4","""rare""","""maremare.wav""","191","rare","RNAdj","same","1","T","rare","Y","47"
"","1642","same-different-html","111","1014700","0.0-3.0-108.0","","5294-4","""fat""","""debudebu.wav""","191","fat","RI","same","1","T","fat","Y","48"
"[{""page_index"":0,""viewing_time"":25356}]","25356","instructions","112","1041058","0.0-3.0-109.0","","","","","","","","","","","","",""
